{
    "resourceType": "Bundle",
    "id": "bundle-radorder-mapped",
    "identifier": {
      "system": "urn:ietf:rfc:3986",
      "value": "urn:uuid:099520c8-dd59-445a-a936-6217cc9e65a6"
    },
    "type": "document",
    "timestamp": "2021-06-17T10:32:28+00:00",
    "entry": [
      {
        "fullUrl": "urn:uuid:0050856e-bf48-4e2d-9ed9-3e4c47e7fecf",
        "resource": {
          "resourceType": "Composition",
          "text": {
            "status": "extensions",
            "div": "<div xmlns=\"http://www.w3.org/1999/xhtml\"><p><b>Generated Narrative</b></p><p><b>CH ORF Receiver</b>: <a href=\"#urnuuid88f73a7b-5893-4f2e-84dd-a3af9285f639\">See above (PractitionerRole/null)</a></p><blockquote><p><b>EPR Data Enterer</b></p><p><b>value</b>: <a href=\"#urnuuid06b1325a-1332-41f1-9cdb-39dd54a4fc25\">See above (PractitionerRole/null)</a></p></blockquote><p><b>CH ORF Copy Receiver</b>: <a href=\"#urnuuid21338b4f-0089-4313-8502-1396b1b94799\">See above (Patient/null)</a></p><p><b>status</b>: final</p><p><b>type</b>: <span title=\"Codes: {urn:oid:2.16.756.5.30.1.127.3.4 2161000195103}\">Imaging order (record artifact)</span></p><p><b>category</b>: <span title=\"Codes: {http://snomed.info/sct 721963009}\">Order (record artifact)</span></p><p><b>date</b>: Jun 17, 2021, 10:32:28 AM</p><p><b>author</b>: <a href=\"#urnuuid2c55b441-0e82-498c-9a80-c12dce907c1f\">See above (PractitionerRole/null)</a></p><p><b>title</b>: Anmeldung Radiologie</p></div>"
          },
          "extension": [
            {
              "url": "http://fhir.ch/ig/ch-orf/StructureDefinition/ch-orf-receiver",
              "valueReference": {
                "reference": "urn:uuid:88f73a7b-5893-4f2e-84dd-a3af9285f639"
              }
            },
            {
              "url": "http://fhir.ch/ig/ch-core/StructureDefinition/ch-ext-epr-dataenterer",
              "extension": [
                {
                  "url": "enterer",
                  "valueReference": {
                    "reference": "urn:uuid:06b1325a-1332-41f1-9cdb-39dd54a4fc25"
                  }
                }
              ]
            },
            {
              "url": "http://fhir.ch/ig/ch-orf/StructureDefinition/ch-orf-copyreceiver",
              "valueReference": {
                "reference": "urn:uuid:21338b4f-0089-4313-8502-1396b1b94799"
              }
            }
          ],
          "status": "final",
          "type": {
            "coding": [
              {
                "system": "urn:oid:2.16.756.5.30.1.127.3.4",
                "code": "2161000195103",
                "display": "Imaging order (record artifact)"
              }
            ]
          },
          "category": [
            {
              "coding": [
                {
                  "system": "http://snomed.info/sct",
                  "code": "721963009",
                  "display": "Order (record artifact)"
                }
              ]
            }
          ],
          "subject": {
            "reference": "urn:uuid:a4b1e8e7-a6fd-42bd-b2fb-124fd5aa34e9"
          },
          "date": "2021-06-17T10:32:28+00:00",
          "author": [
            {
              "reference": "urn:uuid:2c55b441-0e82-498c-9a80-c12dce907c1f"
            }
          ],
          "title": "Anmeldung Radiologie",
          "section": [
            {
              "title": "Order-Referral",
              "code": {
                "coding": [
                  {
                    "system": "http://loinc.org",
                    "code": "93037-0",
                    "display": "Portable medical order form"
                  }
                ]
              },
              "entry": [
                {
                  "reference": "urn:uuid:740a98e0-3aee-46ca-88a1-1000f792840e"
                },
                {
                  "reference": "urn:uuid:dc101f48-40b9-4fb7-a6d5-b576726f9710"
                },
                {
                  "reference": "urn:uuid:7b3006d6-bf94-4c91-8970-d571af2ebbc9"
                }
              ]
            }
          ]
        }
      },
      {
        "fullUrl": "urn:uuid:a4b1e8e7-a6fd-42bd-b2fb-124fd5aa34e9",
        "resource": {
          "resourceType": "Patient",
          "text": {
            "status": "generated",
            "div": "<div xmlns=\"http://www.w3.org/1999/xhtml\"><p><b>Generated Narrative</b></p><p><b>name</b>: Susanna Ufferer , Leidend (MAIDEN)</p><p><b>telecom</b>: <a href=\"tel:+41799797979\">+41 79 979 79 79</a>, <a href=\"mailto:susanna@ufferer.ch\">susanna@ufferer.ch</a></p><p><b>gender</b>: female</p><p><b>birthDate</b>: 1970-03-14</p><p><b>address</b>: Musterweg 6a Zürich 8000 Schweiz </p></div>"
          },
          "name": [
            {
              "family": "Ufferer",
              "given": [
                "Susanna"
              ]
            },
            {
              "use": "maiden",
              "family": "Leidend"
            }
          ],
          "telecom": [
            {
              "system": "phone",
              "value": "+41 79 979 79 79"
            },
            {
              "system": "email",
              "value": "susanna@ufferer.ch"
            }
          ],
          "gender": "female",
          "birthDate": "1970-03-14",
          "address": [
            {
              "line": [
                "Musterweg",
                "6a"
              ],
              "city": "Zürich",
              "postalCode": "8000",
              "country": "Schweiz"
            }
          ]
        }
      },
      {
        "fullUrl": "urn:uuid:740a98e0-3aee-46ca-88a1-1000f792840e",
        "resource": {
          "resourceType": "QuestionnaireResponse",
          "meta": {
            "profile": [
              "http://fhir.ch/ig/ch-orf/StructureDefinition/ch-orf-questionnaireresponse"
            ]
          },
          "text": {
            "status": "generated",
            "div": "<div xmlns=\"http://www.w3.org/1999/xhtml\"><p><b>Generated Narrative</b></p><p><b>questionnaire</b>: <a href=\"http://fhir.ch/ig/ch-rad-order/Questionnaire/QuestionnaireRadiologyOrder\">http://fhir.ch/ig/ch-rad-order/Questionnaire/QuestionnaireRadiologyOrder</a></p><p><b>status</b>: completed</p><blockquote><p><b>item</b></p><p><b>linkId</b>: order</p><p><b>text</b>: Auftrag</p><blockquote><p><b>item</b></p><p><b>linkId</b>: order.title</p><p><b>text</b>: Titel</p></blockquote><blockquote><p><b>item</b></p><p><b>linkId</b>: order.type</p><p><b>text</b>: Typ</p></blockquote><blockquote><p><b>item</b></p><p><b>linkId</b>: order.category</p><p><b>text</b>: Kategorie</p></blockquote><blockquote><p><b>item</b></p><p><b>linkId</b>: order.placerOrderIdentifier</p><p><b>text</b>: Auftragsnummer des Auftraggebers</p></blockquote><blockquote><p><b>item</b></p><p><b>linkId</b>: order.placerOrderIdentifierDomain</p><p><b>text</b>: Identifier Domain der Auftragsnummer des Auftraggebers</p></blockquote><blockquote><p><b>item</b></p><p><b>linkId</b>: order.priority</p><p><b>text</b>: Auftragspriorität</p></blockquote></blockquote><blockquote><p><b>item</b></p><p><b>linkId</b>: patient</p><p><b>text</b>: Patient</p><blockquote><p><b>item</b></p><p><b>linkId</b>: patient.familyName</p><p><b>text</b>: Name</p></blockquote><blockquote><p><b>item</b></p><p><b>linkId</b>: patient.maidenName</p><p><b>text</b>: Ledigname</p></blockquote><blockquote><p><b>item</b></p><p><b>linkId</b>: patient.givenName</p><p><b>text</b>: Vorname</p></blockquote><blockquote><p><b>item</b></p><p><b>linkId</b>: patient.birthDate</p><p><b>text</b>: Geburtsdatum</p></blockquote><blockquote><p><b>item</b></p><p><b>linkId</b>: patient.gender</p><p><b>text</b>: Geschlecht</p></blockquote><blockquote><p><b>item</b></p><p><b>linkId</b>: patient.phone</p><p><b>text</b>: Telefon</p></blockquote><blockquote><p><b>item</b></p><p><b>linkId</b>: patient.email</p><p><b>text</b>: E-Mail</p></blockquote><blockquote><p><b>item</b></p><p><b>linkId</b>: patient.streetAddressLine</p><p><b>text</b>: Strasse, Hausnummer, Postfach etc.</p></blockquote><blockquote><p><b>item</b></p><p><b>linkId</b>: patient.postalCode</p><p><b>text</b>: PLZ</p></blockquote><blockquote><p><b>item</b></p><p><b>linkId</b>: patient.city</p><p><b>text</b>: Ort</p></blockquote><blockquote><p><b>item</b></p><p><b>linkId</b>: patient.country</p><p><b>text</b>: Land</p></blockquote></blockquote><blockquote><p><b>item</b></p><p><b>linkId</b>: coverage</p><p><b>text</b>: Kostenträger</p><blockquote><p><b>item</b></p><p><b>linkId</b>: coverage.kvg</p><p><b>text</b>: Krankenkasse (nach KVG)</p></blockquote></blockquote><blockquote><p><b>item</b></p><p><b>linkId</b>: sender</p><p><b>text</b>: Absender</p><blockquote><p><b>item</b></p><p><b>linkId</b>: sender.author</p><p><b>text</b>: Verantwortlicher</p></blockquote><blockquote><p><b>item</b></p><p><b>linkId</b>: sender.dataenterer</p><p><b>text</b>: Erfasser</p></blockquote></blockquote><blockquote><p><b>item</b></p><p><b>linkId</b>: receiver</p><p><b>text</b>: Empfänger</p><blockquote><p><b>item</b></p><p><b>linkId</b>: receiver.organization</p><p><b>text</b>: Empfangende Organisation</p></blockquote></blockquote><blockquote><p><b>item</b></p><p><b>linkId</b>: receiverCopies</p><p><b>text</b>: Kopieempfänger</p><blockquote><p><b>item</b></p><p><b>linkId</b>: receiverCopy</p><p><b>text</b>: Kopieempfangende Organisation oder Person</p></blockquote></blockquote><blockquote><p><b>item</b></p><p><b>linkId</b>: appointment</p><p><b>text</b>: Ort und Zeit der Durchführung der angeforderten Leistung</p><blockquote><p><b>item</b></p><p><b>linkId</b>: appointment.location</p><p><b>text</b>: Ort der Durchführung</p></blockquote><blockquote><p><b>item</b></p><p><b>linkId</b>: appointment.requestedPeriod</p><p><b>text</b>: Datum und Zeit, wann der Termin bevorzugt geplant werden soll</p></blockquote><blockquote><p><b>item</b></p><p><b>linkId</b>: appointment.status</p><p><b>text</b>: Status</p></blockquote><blockquote><p><b>item</b></p><p><b>linkId</b>: appointment.patientInstruction</p><p><b>text</b>: Patienteninformation für diesen Termin</p></blockquote></blockquote><blockquote><p><b>item</b></p><p><b>linkId</b>: requestedService</p><p><b>text</b>: Angeforderte Leistung</p><blockquote><p><b>item</b></p><p><b>linkId</b>: requestedService.service</p><p><b>text</b>: Leistung</p></blockquote></blockquote><blockquote><p><b>item</b></p><p><b>linkId</b>: reason</p><p><b>text</b>: Klinische Fragestellung</p><blockquote><p><b>item</b></p><p><b>linkId</b>: reason.question</p><p><b>text</b>: Fragestellung</p></blockquote></blockquote><blockquote><p><b>item</b></p><p><b>linkId</b>: imagingService</p><p><b>text</b>: Bildgebendes Verfahren</p><blockquote><p><b>item</b></p><p><b>linkId</b>: imagingService.type</p><p><b>text</b>: Art</p></blockquote></blockquote><blockquote><p><b>item</b></p><p><b>linkId</b>: orderDetail</p><p><b>text</b>: Weitere Angaben zur Bildgebung</p><blockquote><p><b>item</b></p><p><b>linkId</b>: orderDetail.imagingRegion</p><p><b>text</b>: Region</p></blockquote><blockquote><p><b>item</b></p><p><b>linkId</b>: orderDetail.imagingFocus</p><p><b>text</b>: Fokus</p></blockquote></blockquote><blockquote><p><b>item</b></p><p><b>linkId</b>: desiredRadiologist</p><p><b>text</b>: Gewünschter Radiologe für die Befundung / für die Intervention</p><blockquote><p><b>item</b></p><p><b>linkId</b>: desiredRadiologist.familyName</p><p><b>text</b>: Name</p></blockquote><blockquote><p><b>item</b></p><p><b>linkId</b>: desiredRadiologist.givenName</p><p><b>text</b>: Vorname</p></blockquote></blockquote><blockquote><p><b>item</b></p><p><b>linkId</b>: diagnosisList</p><p><b>text</b>: Diagnosen und Befunde</p><blockquote><p><b>item</b></p><p><b>linkId</b>: diagnosisList.primaryDiagnosis</p><p><b>text</b>: Hauptdiagnose</p></blockquote><blockquote><p><b>item</b></p><p><b>linkId</b>: diagnosisList.secondaryDiagnosis</p><p><b>text</b>: Nebendiagnose</p></blockquote><blockquote><p><b>item</b></p><p><b>linkId</b>: diagnosisList.bodyHeight</p><p><b>text</b>: Grösse (cm)</p></blockquote><blockquote><p><b>item</b></p><p><b>linkId</b>: diagnosisList.bodyWeight</p><p><b>text</b>: Gewicht (kg)</p></blockquote></blockquote><blockquote><p><b>item</b></p><p><b>linkId</b>: caveat</p><p><b>text</b>: Caveats</p><blockquote><p><b>item</b></p><p><b>linkId</b>: caveat.bloodCoagulation</p><p><b>text</b>: Beinträchtigte Blutgerinnung</p></blockquote><blockquote><p><b>item</b></p><p><b>linkId</b>: caveat.renalInsufficiency</p><p><b>text</b>: Niereninsuffizienz</p></blockquote><blockquote><p><b>item</b></p><p><b>linkId</b>: caveat.bodyPiercing</p><p><b>text</b>: Körperpiercing</p></blockquote><blockquote><p><b>item</b></p><p><b>linkId</b>: caveat.device</p><p><b>text</b>: Device (Herzschrittmacher, Herzklappenersatz, Insulinpumpe etc.)</p></blockquote><blockquote><p><b>item</b></p><p><b>linkId</b>: caveat.drugPrescription</p><p><b>text</b>: Relevante Medikamente, z.B. Metformin</p></blockquote></blockquote><blockquote><p><b>item</b></p><p><b>linkId</b>: previousResults</p><p><b>text</b>: Vorherige Untersuchungsresultate</p><blockquote><p><b>item</b></p><p><b>linkId</b>: previousResults.attachment</p><p><b>text</b>: Anhang</p></blockquote></blockquote><blockquote><p><b>item</b></p><p><b>linkId</b>: note</p><p><b>text</b>: Bemerkungen</p><blockquote><p><b>item</b></p><p><b>linkId</b>: note.text</p><p><b>text</b>: Kommentar</p></blockquote></blockquote></div>"
          },
          "questionnaire": "http://fhir.ch/ig/ch-rad-order/Questionnaire/QuestionnaireRadiologyOrder",
          "status": "completed",
          "item": [
            {
              "linkId": "order",
              "text": "Auftrag",
              "item": [
                {
                  "linkId": "order.title",
                  "text": "Titel",
                  "answer": [
                    {
                      "valueString": "Anmeldung Radiologie"
                    }
                  ]
                },
                {
                  "linkId": "order.type",
                  "text": "Typ",
                  "answer": [
                    {
                      "valueCoding": {
                        "system": "urn:oid:2.16.756.5.30.1.127.3.4",
                        "code": "2161000195103",
                        "display": "Imaging order (record artifact)"
                      }
                    }
                  ]
                },
                {
                  "linkId": "order.category",
                  "text": "Kategorie",
                  "answer": [
                    {
                      "valueCoding": {
                        "system": "http://snomed.info/sct",
                        "code": "721963009",
                        "display": "Order (record artifact)"
                      }
                    }
                  ]
                },
                {
                  "linkId": "order.placerOrderIdentifier",
                  "text": "Auftragsnummer des Auftraggebers",
                  "answer": [
                    {
                      "valueString": "12345"
                    }
                  ]
                },
                {
                  "linkId": "order.placerOrderIdentifierDomain",
                  "text": "Identifier Domain der Auftragsnummer des Auftraggebers",
                  "answer": [
                    {
                      "valueString": "urn:oid:1.3.4.5.6.7"
                    }
                  ]
                },
                {
                  "linkId": "order.priority",
                  "text": "Auftragspriorität",
                  "answer": [
                    {
                      "valueCoding": {
                        "system": "http://hl7.org/fhir/request-priority",
                        "code": "routine",
                        "display": "Die Anfrage hat normale Priorität."
                      }
                    }
                  ]
                }
              ]
            },
            {
              "linkId": "patient",
              "text": "Patient",
              "item": [
                {
                  "linkId": "patient.familyName",
                  "text": "Name",
                  "answer": [
                    {
                      "valueString": "Ufferer"
                    }
                  ]
                },
                {
                  "linkId": "patient.maidenName",
                  "text": "Ledigname",
                  "answer": [
                    {
                      "valueString": "Leidend"
                    }
                  ]
                },
                {
                  "linkId": "patient.givenName",
                  "text": "Vorname",
                  "answer": [
                    {
                      "valueString": "Susanna"
                    }
                  ]
                },
                {
                  "linkId": "patient.birthDate",
                  "text": "Geburtsdatum",
                  "answer": [
                    {
                      "valueDate": "1970-03-14"
                    }
                  ]
                },
                {
                  "linkId": "patient.gender",
                  "text": "Geschlecht",
                  "answer": [
                    {
                      "valueCoding": {
                        "system": "http://hl7.org/fhir/administrative-gender",
                        "code": "female"
                      }
                    }
                  ]
                },
                {
                  "linkId": "patient.phone",
                  "text": "Telefon",
                  "answer": [
                    {
                      "valueString": "+41 79 979 79 79"
                    }
                  ]
                },
                {
                  "linkId": "patient.email",
                  "text": "E-Mail",
                  "answer": [
                    {
                      "valueString": "susanna@ufferer.ch"
                    }
                  ]
                },
                {
                  "linkId": "patient.streetAddressLine",
                  "text": "Strasse, Hausnummer, Postfach etc.",
                  "answer": [
                    {
                      "valueString": "Musterweg"
                    },
                    {
                      "valueString": "6a"
                    }
                  ]
                },
                {
                  "linkId": "patient.postalCode",
                  "text": "PLZ",
                  "answer": [
                    {
                      "valueString": "8000"
                    }
                  ]
                },
                {
                  "linkId": "patient.city",
                  "text": "Ort",
                  "answer": [
                    {
                      "valueString": "Zürich"
                    }
                  ]
                },
                {
                  "linkId": "patient.country",
                  "text": "Land",
                  "answer": [
                    {
                      "valueString": "Schweiz"
                    }
                  ]
                }
              ]
            },
            {
              "linkId": "coverage",
              "text": "Kostenträger",
              "item": [
                {
                  "linkId": "coverage.kvg",
                  "text": "Krankenkasse (nach KVG)",
                  "item": [
                    {
                      "linkId": "coverage.kvg.name",
                      "text": "Name der Versicherung",
                      "answer": [
                        {
                          "valueString": "Sanitas"
                        }
                      ]
                    },
                    {
                      "linkId": "coverage.kvg.insuranceCardNumber",
                      "text": "Kennnummer der Versichertenkarte",
                      "answer": [
                        {
                          "valueString": "80756015090002647590"
                        }
                      ]
                    }
                  ]
                }
              ]
            },
            {
              "linkId": "sender",
              "text": "Absender",
              "item": [
                {
                  "linkId": "sender.author",
                  "text": "Verantwortlicher",
                  "item": [
                    {
                      "linkId": "sender.author.practitioner",
                      "text": "Verantwortliche Person",
                      "item": [
                        {
                          "linkId": "sender.author.practitioner.title",
                          "text": "Titel",
                          "answer": [
                            {
                              "valueString": "Dr. med."
                            }
                          ]
                        },
                        {
                          "linkId": "sender.author.practitioner.familyName",
                          "text": "Name",
                          "answer": [
                            {
                              "valueString": "Rderplacer"
                            }
                          ]
                        },
                        {
                          "linkId": "sender.author.practitioner.givenName",
                          "text": "Vorname",
                          "answer": [
                            {
                              "valueString": "Ottilie"
                            }
                          ]
                        },
                        {
                          "linkId": "sender.author.practitioner.gln",
                          "text": "GLN",
                          "answer": [
                            {
                              "valueString": "7601000034321"
                            }
                          ]
                        },
                        {
                          "linkId": "sender.author.practitioner.phone",
                          "text": "Telefon",
                          "answer": [
                            {
                              "valueString": "+41 44 333 22 11"
                            }
                          ]
                        },
                        {
                          "linkId": "sender.author.practitioner.email",
                          "text": "E-Mail",
                          "answer": [
                            {
                              "valueString": "o.rderplacer@happydoctors.ch"
                            }
                          ]
                        }
                      ]
                    },
                    {
                      "linkId": "sender.author.organization",
                      "text": "Verantwortliche Organisation",
                      "item": [
                        {
                          "linkId": "sender.author.organization.name",
                          "text": "Name der Organisation",
                          "answer": [
                            {
                              "valueString": "Praxis Happy Doctors"
                            }
                          ]
                        },
                        {
                          "linkId": "sender.author.organization.streetAddressLine",
                          "text": "Strasse, Hausnummer, Postfach etc.",
                          "answer": [
                            {
                              "valueString": "Kantonsstrasse 14"
                            },
                            {
                              "valueString": "Postfach 14"
                            }
                          ]
                        },
                        {
                          "linkId": "sender.author.organization.postalCode",
                          "text": "PLZ",
                          "answer": [
                            {
                              "valueString": "8000"
                            }
                          ]
                        },
                        {
                          "linkId": "sender.author.organization.city",
                          "text": "Ort",
                          "answer": [
                            {
                              "valueString": "Zürich"
                            }
                          ]
                        },
                        {
                          "linkId": "sender.author.organization.country",
                          "text": "Land",
                          "answer": [
                            {
                              "valueString": "Schweiz"
                            }
                          ]
                        }
                      ]
                    }
                  ]
                },
                {
                  "linkId": "sender.dataenterer",
                  "text": "Erfasser",
                  "item": [
                    {
                      "linkId": "sender.dataenterer.practitioner",
                      "text": "Erfassende Person",
                      "item": [
                        {
                          "linkId": "sender.dataenterer.practitioner.familyName",
                          "text": "Name",
                          "answer": [
                            {
                              "valueString": "Ataenterer"
                            }
                          ]
                        },
                        {
                          "linkId": "sender.dataenterer.practitioner.givenName",
                          "text": "Vorname",
                          "answer": [
                            {
                              "valueString": "Doris"
                            }
                          ]
                        },
                        {
                          "linkId": "sender.dataenterer.practitioner.phone",
                          "text": "Telefon",
                          "answer": [
                            {
                              "valueString": "+41 44 333 22 11"
                            }
                          ]
                        },
                        {
                          "linkId": "sender.dataenterer.practitioner.email",
                          "text": "E-Mail",
                          "answer": [
                            {
                              "valueString": "d.ataenterer@happydoctors.ch"
                            }
                          ]
                        }
                      ]
                    }
                  ]
                }
              ]
            },
            {
              "linkId": "receiver",
              "text": "Empfänger",
              "item": [
                {
                  "linkId": "receiver.organization",
                  "text": "Empfangende Organisation",
                  "item": [
                    {
                      "linkId": "receiver.organization.name",
                      "text": "Name der Organisation",
                      "answer": [
                        {
                          "valueString": "Klinik Happy Hospital"
                        }
                      ]
                    },
                    {
                      "linkId": "receiver.organization.streetAddressLine",
                      "text": "Strasse, Hausnummer, Postfach etc.",
                      "answer": [
                        {
                          "valueString": "Seestrasse 133"
                        },
                        {
                          "valueString": "Haus C"
                        }
                      ]
                    },
                    {
                      "linkId": "receiver.organization.postalCode",
                      "text": "PLZ",
                      "answer": [
                        {
                          "valueString": "8000"
                        }
                      ]
                    },
                    {
                      "linkId": "receiver.organization.city",
                      "text": "Ort",
                      "answer": [
                        {
                          "valueString": "Zürich"
                        }
                      ]
                    },
                    {
                      "linkId": "receiver.organization.country",
                      "text": "Land",
                      "answer": [
                        {
                          "valueString": "Schweiz"
                        }
                      ]
                    }
                  ]
                }
              ]
            },
            {
              "linkId": "receiverCopies",
              "text": "Kopieempfänger",
              "item": [
                {
                  "linkId": "receiverCopy",
                  "text": "Kopieempfangende Organisation oder Person",
                  "item": [
                    {
                      "linkId": "receiverCopy.familyName",
                      "text": "Name",
                      "answer": [
                        {
                          "valueString": "Ufferer"
                        }
                      ]
                    },
                    {
                      "linkId": "receiverCopy.givenName",
                      "text": "Vorname",
                      "answer": [
                        {
                          "valueString": "Susanna"
                        }
                      ]
                    },
                    {
                      "linkId": "receiverCopy.phone",
                      "text": "Telefon",
                      "answer": [
                        {
                          "valueString": "+41 79 979 79 79"
                        }
                      ]
                    },
                    {
                      "linkId": "receiverCopy.email",
                      "text": "E-Mail",
                      "answer": [
                        {
                          "valueString": "susanna@ufferer.ch"
                        }
                      ]
                    },
                    {
                      "linkId": "receiverCopy.streetAddressLine",
                      "text": "Strasse, Hausnummer, Postfach etc.",
                      "answer": [
                        {
                          "valueString": "Musterweg"
                        },
                        {
                          "valueString": "6a"
                        }
                      ]
                    },
                    {
                      "linkId": "receiverCopy.postalCode",
                      "text": "PLZ",
                      "answer": [
                        {
                          "valueString": "8000"
                        }
                      ]
                    },
                    {
                      "linkId": "receiverCopy.city",
                      "text": "Ort",
                      "answer": [
                        {
                          "valueString": "Zürich"
                        }
                      ]
                    },
                    {
                      "linkId": "receiverCopy.country",
                      "text": "Land",
                      "answer": [
                        {
                          "valueString": "Schweiz"
                        }
                      ]
                    }
                  ]
                }
              ]
            },
            {
              "linkId": "appointment",
              "text": "Ort und Zeit der Durchführung der angeforderten Leistung",
              "item": [
                {
                  "linkId": "appointment.location",
                  "text": "Ort der Durchführung",
                  "item": [
                    {
                      "linkId": "appointment.location.name",
                      "text": "Name",
                      "answer": [
                        {
                          "valueString": "Radiologie"
                        }
                      ]
                    },
                    {
                      "linkId": "appointment.location.phone",
                      "text": "Telefon",
                      "answer": [
                        {
                          "valueString": "+41 44 412 65 56"
                        }
                      ]
                    },
                    {
                      "linkId": "appointment.location.streetAddressLine",
                      "text": "Strasse, Hausnummer, Postfach etc.",
                      "answer": [
                        {
                          "valueString": "Seestrasse 133"
                        },
                        {
                          "valueString": "Röntgen"
                        }
                      ]
                    },
                    {
                      "linkId": "appointment.location.postalCode",
                      "text": "PLZ",
                      "answer": [
                        {
                          "valueString": "8000"
                        }
                      ]
                    },
                    {
                      "linkId": "appointment.location.city",
                      "text": "Ort",
                      "answer": [
                        {
                          "valueString": "Zürich"
                        }
                      ]
                    },
                    {
                      "linkId": "appointment.location.country",
                      "text": "Land",
                      "answer": [
                        {
                          "valueString": "Schweiz"
                        }
                      ]
                    }
                  ]
                },
                {
                  "linkId": "appointment.requestedPeriod",
                  "text": "Datum und Zeit, wann der Termin bevorzugt geplant werden soll",
                  "item": [
                    {
                      "linkId": "appointment.requestedPeriod.start",
                      "text": "Von",
                      "answer": [
                        {
                          "valueDateTime": "2019-04-01T15:00:00.000+00:00"
                        }
                      ]
                    },
                    {
                      "linkId": "appointment.requestedPeriod.end",
                      "text": "Bis",
                      "answer": [
                        {
                          "valueDateTime": "2019-04-01T15:30:00.000+00:00"
                        }
                      ]
                    }
                  ]
                },
                {
                  "linkId": "appointment.status",
                  "text": "Status",
                  "answer": [
                    {
                      "valueCoding": {
                        "system": "http://hl7.org/fhir/appointmentstatus",
                        "code": "proposed"
                      }
                    }
                  ]
                },
                {
                  "linkId": "appointment.patientInstruction",
                  "text": "Patienteninformation für diesen Termin",
                  "answer": [
                    {
                      "valueString": "Wunschtermin der Patientin"
                    }
                  ]
                }
              ]
            },
            {
              "linkId": "requestedService",
              "text": "Angeforderte Leistung",
              "item": [
                {
                  "linkId": "requestedService.service",
                  "text": "Leistung",
                  "answer": [
                    {
                      "valueCoding": {
                        "system": "http://fhir.ch/ig/ch-rad-order/CodeSystem/ch-rad-order-requested-service",
                        "code": "ImagingRequest",
                        "display": "Imaging Request"
                      }
                    }
                  ]
                }
              ]
            },
            {
              "linkId": "reason",
              "text": "Klinische Fragestellung",
              "item": [
                {
                  "linkId": "reason.question",
                  "text": "Fragestellung",
                  "answer": [
                    {
                      "valueString": "Diagnostic Question"
                    }
                  ]
                }
              ]
            },
            {
              "linkId": "imagingService",
              "text": "Bildgebendes Verfahren",
              "item": [
                {
                  "linkId": "imagingService.type",
                  "text": "Art",
                  "answer": [
                    {
                      "valueCoding": {
                        "system": "http://www.radlex.org",
                        "code": "RID10345",
                        "display": "projection radiography"
                      }
                    }
                  ]
                }
              ]
            },
            {
              "linkId": "orderDetail",
              "text": "Weitere Angaben zur Bildgebung",
              "item": [
                {
                  "linkId": "orderDetail.imagingRegion",
                  "text": "Region",
                  "answer": [
                    {
                      "valueCoding": {
                        "system": "http://www.radlex.org",
                        "code": "RID1243",
                        "display": "Thorax"
                      }
                    }
                  ]
                },
                {
                  "linkId": "orderDetail.imagingFocus",
                  "text": "Fokus",
                  "answer": [
                    {
                      "valueCoding": {
                        "system": "http://www.radlex.org",
                        "code": "RID2468",
                        "display": "Chest wall"
                      }
                    }
                  ]
                }
              ]
            },
            {
              "linkId": "desiredRadiologist",
              "text": "Gewünschter Radiologe für die Befundung / für die Intervention",
              "item": [
                {
                  "linkId": "desiredRadiologist.familyName",
                  "text": "Name",
                  "answer": [
                    {
                      "valueString": "Rderfiller"
                    }
                  ]
                },
                {
                  "linkId": "desiredRadiologist.givenName",
                  "text": "Vorname",
                  "answer": [
                    {
                      "valueString": "Otto"
                    }
                  ]
                }
              ]
            },
            {
              "linkId": "diagnosisList",
              "text": "Diagnosen und Befunde",
              "item": [
                {
                  "linkId": "diagnosisList.primaryDiagnosis",
                  "text": "Hauptdiagnose",
                  "answer": [
                    {
                      "valueString": "Primary Diagnosis"
                    }
                  ]
                },
                {
                  "linkId": "diagnosisList.secondaryDiagnosis",
                  "text": "Nebendiagnose",
                  "answer": [
                    {
                      "valueString": "Secondary Diagnosis 1"
                    },
                    {
                      "valueString": "Secondary Diagnosis 2"
                    }
                  ]
                },
                {
                  "linkId": "diagnosisList.bodyHeight",
                  "text": "Grösse (cm)",
                  "answer": [
                    {
                      "valueQuantity": {
                        "value": 176,
                        "unit": "cm",
                        "system": "http://unitsofmeasure.org",
                        "code": "cm"
                      }
                    }
                  ]
                },
                {
                  "linkId": "diagnosisList.bodyWeight",
                  "text": "Gewicht (kg)",
                  "answer": [
                    {
                      "valueQuantity": {
                        "value": 99,
                        "unit": "kg",
                        "system": "http://unitsofmeasure.org",
                        "code": "kg"
                      }
                    }
                  ]
                }
              ]
            },
            {
              "linkId": "caveat",
              "text": "Caveats",
              "item": [
                {
                  "linkId": "caveat.bloodCoagulation",
                  "text": "Beinträchtigte Blutgerinnung",
                  "answer": [
                    {
                      "valueBoolean": true
                    }
                  ]
                },
                {
                  "linkId": "caveat.renalInsufficiency",
                  "text": "Niereninsuffizienz",
                  "answer": [
                    {
                      "valueBoolean": true,
                      "item": [
                        {
                          "linkId": "caveat.renalInsufficiency.creatinineClearance",
                          "text": "Creatinin-Clearance",
                          "item": [
                            {
                              "linkId": "caveat.renalInsufficiency.creatinineClearance.quantity",
                              "text": "Wert (ml/min)",
                              "answer": [
                                {
                                  "valueQuantity": {
                                    "value": 55,
                                    "system": "http://unitsofmeasure.org",
                                    "code": "mL/min"
                                  }
                                }
                              ]
                            },
                            {
                              "linkId": "caveat.renalInsufficiency.creatinineClearance.dateTime",
                              "text": "Zeitpunkt der Bestimmung",
                              "answer": [
                                {
                                  "valueDateTime": "2019-04-01T10:10:00.000+00:00"
                                }
                              ]
                            }
                          ]
                        },
                        {
                          "linkId": "caveat.renalInsufficiency.creatinine",
                          "text": "Creatinin",
                          "item": [
                            {
                              "linkId": "caveat.renalInsufficiency.creatinine.quantity",
                              "text": "Wert (µmol/l)",
                              "answer": [
                                {
                                  "valueQuantity": {
                                    "value": 90,
                                    "system": "http://unitsofmeasure.org",
                                    "code": "umol/L"
                                  }
                                }
                              ]
                            },
                            {
                              "linkId": "caveat.renalInsufficiency.creatinine.dateTime",
                              "text": "Zeitpunkt der Bestimmung",
                              "answer": [
                                {
                                  "valueDateTime": "2019-04-01T10:10:00.000+00:00"
                                }
                              ]
                            }
                          ]
                        }
                      ]
                    }
                  ]
                },
                {
                  "linkId": "caveat.bodyPiercing",
                  "text": "Körperpiercing",
                  "answer": [
                    {
                      "valueBoolean": true
                    }
                  ]
                },
                {
                  "linkId": "caveat.device",
                  "text": "Device (Herzschrittmacher, Herzklappenersatz, Insulinpumpe etc.)",
                  "answer": [
                    {
                      "valueCoding": {
                        "system": "http://snomed.info/sct",
                        "code": "441509002",
                        "display": "Cardiac pacemaker in situ"
                      }
                    }
                  ]
                },
                {
                  "linkId": "caveat.drugPrescription",
                  "text": "Relevante Medikamente, z.B. Metformin",
                  "answer": [
                    {
                      "valueCoding": {
                        "system": "http://snomed.info/sct",
                        "code": "372567009",
                        "display": "Metformin (substance)"
                      }
                    }
                  ]
                }
              ]
            },
            {
              "linkId": "previousResults",
              "text": "Vorherige Untersuchungsresultate",
              "item": [
                {
                  "linkId": "previousResults.attachment",
                  "text": "Anhang",
                  "item": [
                    {
                      "linkId": "previousResults.attachtment.title",
                      "text": "Dateiname und -endung der angehängten Datei (z.B. \"shoulder_re_F_Muster_12021988.pdf\")",
                      "answer": [
                        {
                          "valueString": "xray_chest_S_Ufferer_20190401.dcm"
                        }
                      ]
                    }
                  ]
                }
              ]
            },
            {
              "linkId": "note",
              "text": "Bemerkungen",
              "item": [
                {
                  "linkId": "note.text",
                  "text": "Kommentar",
                  "answer": [
                    {
                      "valueString": "Bemerkung/Kommentar"
                    }
                  ]
                }
              ]
            }
          ]
        }
      },
      {
        "fullUrl": "urn:uuid:dc101f48-40b9-4fb7-a6d5-b576726f9710",
        "resource": {
          "resourceType": "ServiceRequest",
          "text": {
            "status": "extensions",
            "div": "<div xmlns=\"http://www.w3.org/1999/xhtml\"><p><b>Generated Narrative</b></p><p><b>CH ORF Location and Time</b>: <a href=\"#urnuuid0f5c70f5-3159-46d0-88fc-957ea0ebb119\">See above (Appointment/null)</a></p><p><b>identifier</b>: Placer Identifier: 12345</p><p><b>status</b>: active</p><p><b>intent</b>: order</p><p><b>category</b>: <span title=\"Codes: {http://fhir.ch/ig/ch-rad-order/CodeSystem/ch-rad-order-requested-service ImagingRequest}\">Imaging Request</span></p><p><b>priority</b>: routine</p><p><b>code</b>: <span title=\"Codes: {http://www.radlex.org RID10345}\">projection radiography</span></p><p><b>orderDetail</b>: <span title=\"Codes: {http://www.radlex.org RID1243}\">Thorax</span></p><p><b>subject</b>: <a href=\"#urnuuida4b1e8e7-a6fd-42bd-b2fb-124fd5aa34e9\">See above (Patient/null)</a></p><p><b>requester</b>: <a href=\"#urnuuid2c55b441-0e82-498c-9a80-c12dce907c1f\">See above (PractitionerRole/null)</a></p><p><b>reasonCode</b>: <span title=\"Codes: \">Diagnostic Question</span></p><p><b>insurance</b>: <a href=\"#urnuuide1224598-58f9-457f-b817-e3493535adc8\">See above (Coverage/null)</a></p><p><b>supportingInfo</b>: </p><ul><li><a href=\"#urnuuid8b9ea9dc-c224-4c35-8211-9150fee3ca75\">See above (Condition/null)</a></li><li><a href=\"#urnuuid7bf3d52a-30f8-41b8-aad4-6c4517450f95\">See above (Condition/null)</a></li><li><a href=\"#urnuuidb31980c8-4246-48ee-af22-07634204051c\">See above (Condition/null)</a></li><li><a href=\"#urnuuida339566a-d37b-4e15-bcbd-fbd37a2534d2\">See above (Condition/null)</a></li><li><a href=\"#urnuuid7d48e7e4-04ae-46ce-9eb8-51924aa4d5fd\">See above (Condition/null)</a></li></ul><p><b>bodySite</b>: <span title=\"Codes: {http://www.radlex.org RID2468}\">Chest wall</span></p><p><b>note</b>: Bemerkung/Kommentar</p></div>"
          },
          "extension": [
            {
              "url": "http://fhir.ch/ig/ch-orf/StructureDefinition/ch-orf-locationandtime",
              "valueReference": {
                "reference": "urn:uuid:0f5c70f5-3159-46d0-88fc-957ea0ebb119"
              }
            }
          ],
          "identifier": [
            {
              "type": {
                "coding": [
                  {
                    "system": "http://terminology.hl7.org/CodeSystem/v2-0203",
                    "code": "PLAC"
                  }
                ]
              },
              "system": "urn:oid:1.3.4.5.6.7",
              "value": "123456"
            }
          ],
          "status": "active",
          "intent": "order",
          "category": [
            {
              "coding": [
                {
                  "system": "http://fhir.ch/ig/ch-rad-order/CodeSystem/ch-rad-order-requested-service",
                  "code": "ImagingRequest",
                  "display": "Imaging Request"
                }
              ]
            }
          ],
          "priority": "routine",
          "code": {
            "coding": [
              {
                "system": "http://www.radlex.org",
                "code": "RID10345",
                "display": "projection radiography"
              }
            ]
          },
          "orderDetail": [
            {
              "extension": [
                {
                  "url": "http://fhir.ch/ig/ch-rad-order/StructureDefinition/ch-rad-order-order-detail-type",
                  "valueCoding": {
                    "system": "http://fhir.ch/ig/ch-rad-order/CodeSystem/ch-rad-order-order-detail-type",
                    "code": "imagingRegion"
                  }
                }
              ],
              "coding": [
                {
                  "system": "http://www.radlex.org",
                  "code": "RID1243",
                  "display": "Thorax"
                }
              ]
            }
          ],
          "subject": {
            "reference": "urn:uuid:a4b1e8e7-a6fd-42bd-b2fb-124fd5aa34e9"
          },
          "requester": {
            "reference": "urn:uuid:2c55b441-0e82-498c-9a80-c12dce907c1f"
          },
          "reasonCode": [
            {
              "text": "Diagnostic Question"
            }
          ],
          "insurance": [
            {
              "reference": "urn:uuid:e1224598-58f9-457f-b817-e3493535adc8"
            }
          ],
          "supportingInfo": [
            {
              "reference": "urn:uuid:8b9ea9dc-c224-4c35-8211-9150fee3ca75"
            },
            {
              "reference": "urn:uuid:7bf3d52a-30f8-41b8-aad4-6c4517450f95"
            },
            {
              "reference": "urn:uuid:b31980c8-4246-48ee-af22-07634204051c"
            },
            {
              "reference": "urn:uuid:a339566a-d37b-4e15-bcbd-fbd37a2534d2"
            },
            {
              "reference": "urn:uuid:7d48e7e4-04ae-46ce-9eb8-51924aa4d5fd"
            }
          ],
          "bodySite": [
            {
              "coding": [
                {
                  "system": "http://www.radlex.org",
                  "code": "RID2468",
                  "display": "Chest wall"
                }
              ]
            }
          ],
          "note": [
            {
              "text": "Bemerkung/Kommentar"
            }
          ]
        }
      },
      {
        "fullUrl": "urn:uuid:7b3006d6-bf94-4c91-8970-d571af2ebbc9",
        "resource": {
          "resourceType": "Questionnaire",
          "meta": {
            "profile": [
              "http://fhir.ch/ig/ch-orf/StructureDefinition/ch-orf-questionnaire",
              "http://hl7.org/fhir/uv/sdc/StructureDefinition/sdc-questionnaire",
              "http://hl7.org/fhir/uv/sdc/StructureDefinition/sdc-questionnaire-extract"
            ]
          },
          "text": {
            "status": "extensions",
            "div": "<div xmlns=\"http://www.w3.org/1999/xhtml\"><p><b>Generated Narrative</b></p><p><b>Target structure map</b>: <a href=\"http://fhir.ch/ig/ch-rad-order/StructureMap/RadOrderQrToBundle\">http://fhir.ch/ig/ch-rad-order/StructureMap/RadOrderQrToBundle</a></p><p><b>Source structure map</b>: <a href=\"http://fhir.ch/ig/ch-orf/StructureMap/OrfPrepopBundleToQr\">http://fhir.ch/ig/ch-orf/StructureMap/OrfPrepopBundleToQr</a></p><blockquote><p><b>Launch context resources</b></p><p><b>value</b>: Bundle</p><p><b>value</b>: Bundle</p><p><b>value</b>: The Bundle that is to be used to pre-populate the form</p></blockquote><p><b>url</b>: <code>http://fhir.ch/ig/ch-rad-order/Questionnaire/QuestionnaireRadiologyOrder</code></p><p><b>name</b>: QuestionnaireRadiologyOrder</p><p><b>title</b>: Questionnaire Radiology Order</p><p><b>derivedFrom</b>: <a href=\"http://fhir.ch/ig/ch-orf/StructureDefinition/ch-orf-questionnaire\">http://fhir.ch/ig/ch-orf/StructureDefinition/ch-orf-questionnaire</a></p><p><b>status</b>: active</p><p><b>subjectType</b>: Patient</p><p><b>date</b>: 2021-02-24</p><p><b>publisher</b>: HL7 Switzerland</p><blockquote><p><b>item</b></p><p><b>linkId</b>: order</p><p><b>definition</b>: <a href=\"http://fhir.ch/ig/ch-rad-order/StructureDefinition/ch-rad-order-document#Bundle\">http://fhir.ch/ig/ch-rad-order/StructureDefinition/ch-rad-order-document#Bundle</a></p><p><b>text</b>: Auftrag</p><p><b>type</b>: group</p><p><b>required</b>: true</p><blockquote><p><b>item</b></p><p><b>linkId</b>: order.title</p><p><b>definition</b>: <a href=\"http://fhir.ch/ig/ch-rad-order/StructureDefinition/ch-rad-order-composition#Composition.title\">http://fhir.ch/ig/ch-rad-order/StructureDefinition/ch-rad-order-composition#Composition.title</a></p><p><b>text</b>: Titel</p><p><b>type</b>: string</p><p><b>required</b>: true</p><p><b>readOnly</b>: true</p></blockquote><blockquote><p><b>item</b></p><p><b>linkId</b>: order.type</p><p><b>definition</b>: <a href=\"http://fhir.ch/ig/ch-rad-order/StructureDefinition/ch-rad-order-composition#Composition.type\">http://fhir.ch/ig/ch-rad-order/StructureDefinition/ch-rad-order-composition#Composition.type</a></p><p><b>text</b>: Typ</p><p><b>type</b>: choice</p><p><b>required</b>: true</p><p><b>readOnly</b>: true</p><p><b>answerValueSet</b>: <a href=\"http://fhir.ch/ig/ch-epr-term/ValueSet/DocumentEntry.typeCode\">http://fhir.ch/ig/ch-epr-term/ValueSet/DocumentEntry.typeCode</a></p></blockquote><blockquote><p><b>item</b></p><p><b>linkId</b>: order.category</p><p><b>definition</b>: <a href=\"http://fhir.ch/ig/ch-rad-order/StructureDefinition/ch-rad-order-composition#Composition.category\">http://fhir.ch/ig/ch-rad-order/StructureDefinition/ch-rad-order-composition#Composition.category</a></p><p><b>text</b>: Kategorie</p><p><b>type</b>: choice</p><p><b>required</b>: true</p><p><b>readOnly</b>: true</p><p><b>answerValueSet</b>: <a href=\"http://fhir.ch/ig/ch-epr-term/ValueSet/DocumentEntry.classCode\">http://fhir.ch/ig/ch-epr-term/ValueSet/DocumentEntry.classCode</a></p></blockquote><blockquote><p><b>item</b></p><p><b>linkId</b>: order.placerOrderIdentifier</p><p><b>definition</b>: <a href=\"http://fhir.ch/ig/ch-rad-order/StructureDefinition/ch-rad-order-servicerequest#ServiceRequest.identifier:placerOrderIdentifier.value\">http://fhir.ch/ig/ch-rad-order/StructureDefinition/ch-rad-order-servicerequest#ServiceRequest.identifier:placerOrderIdentifier.value</a></p><p><b>text</b>: Auftragsnummer des Auftraggebers</p><p><b>type</b>: string</p><p><b>required</b>: true</p></blockquote><blockquote><p><b>item</b></p><p><b>hidden</b>: true</p><p><b>linkId</b>: order.placerOrderIdentifierDomain</p><p><b>definition</b>: <a href=\"http://fhir.ch/ig/ch-rad-order/StructureDefinition/ch-rad-order-servicerequest#ServiceRequest.identifier:placerOrderIdentifier.system\">http://fhir.ch/ig/ch-rad-order/StructureDefinition/ch-rad-order-servicerequest#ServiceRequest.identifier:placerOrderIdentifier.system</a></p><p><b>text</b>: Identifier Domain der Auftragsnummer des Auftraggebers</p><p><b>type</b>: string</p><p><b>required</b>: true</p></blockquote><blockquote><p><b>item</b></p><p><b>linkId</b>: order.fillerOrderIdentifier</p><p><b>definition</b>: <a href=\"http://fhir.ch/ig/ch-rad-order/StructureDefinition/ch-rad-order-servicerequest#ServiceRequest.identifier:fillerOrderIdentifier.value\">http://fhir.ch/ig/ch-rad-order/StructureDefinition/ch-rad-order-servicerequest#ServiceRequest.identifier:fillerOrderIdentifier.value</a></p><p><b>text</b>: Auftragsnummer des Auftragsempfängers</p><p><b>type</b>: string</p></blockquote><blockquote><p><b>item</b></p><p><b>hidden</b>: true</p><p><b>linkId</b>: order.fillerOrderIdentifierDomain</p><p><b>definition</b>: <a href=\"http://fhir.ch/ig/ch-rad-order/StructureDefinition/ch-rad-order-servicerequest#ServiceRequest.identifier:fillerOrderIdentifier.system\">http://fhir.ch/ig/ch-rad-order/StructureDefinition/ch-rad-order-servicerequest#ServiceRequest.identifier:fillerOrderIdentifier.system</a></p><p><b>text</b>: Identifier Domain der Auftragsnummer des Auftragsempfängers</p><p><b>type</b>: string</p></blockquote><blockquote><p><b>item</b></p><p><b>hidden</b>: true</p><p><b>linkId</b>: order.precedentDocumentIdentifier</p><p><b>definition</b>: <a href=\"http://fhir.ch/ig/ch-rad-order/StructureDefinition/ch-rad-order-composition#Composition.extension:precedentDocument\">http://fhir.ch/ig/ch-rad-order/StructureDefinition/ch-rad-order-composition#Composition.extension:precedentDocument</a></p><p><b>text</b>: Identifier des Vorgängerdokuments</p><p><b>type</b>: string</p></blockquote><blockquote><p><b>item</b></p><p><b>linkId</b>: order.notificationContactDocument</p><p><b>definition</b>: <a href=\"http://fhir.ch/ig/ch-rad-order/StructureDefinition/ch-rad-order-composition#Composition.extension:urgentNoficationContactForThisDocument\">http://fhir.ch/ig/ch-rad-order/StructureDefinition/ch-rad-order-composition#Composition.extension:urgentNoficationContactForThisDocument</a></p><p><b>text</b>: Dringender Benachrichtigungskontakt für dieses Dokument</p><p><b>type</b>: group</p></blockquote><blockquote><p><b>item</b></p><p><b>linkId</b>: order.notificationContactDocumentResponse</p><p><b>definition</b>: <a href=\"http://fhir.ch/ig/ch-rad-order/StructureDefinition/ch-rad-order-composition#Composition.extension:urgentNoficationContactForTheResponseToThisDocument\">http://fhir.ch/ig/ch-rad-order/StructureDefinition/ch-rad-order-composition#Composition.extension:urgentNoficationContactForTheResponseToThisDocument</a></p><p><b>text</b>: Dringender Benachrichtigungskontakt für die Antwort auf dieses Dokument</p><p><b>type</b>: group</p></blockquote><blockquote><p><b>item</b></p><p><b>linkId</b>: order.priority</p><p><b>definition</b>: <a href=\"http://fhir.ch/ig/ch-rad-order/StructureDefinition/ch-rad-order-servicerequest#ServiceRequest.priority\">http://fhir.ch/ig/ch-rad-order/StructureDefinition/ch-rad-order-servicerequest#ServiceRequest.priority</a></p><p><b>text</b>: Auftragspriorität</p><p><b>type</b>: choice</p></blockquote></blockquote><blockquote><p><b>item</b></p><p><b>linkId</b>: patient</p><p><b>definition</b>: <a href=\"http://fhir.ch/ig/ch-rad-order/StructureDefinition/ch-rad-order-composition#Composition.subject\">http://fhir.ch/ig/ch-rad-order/StructureDefinition/ch-rad-order-composition#Composition.subject</a></p><p><b>text</b>: Patient</p><p><b>type</b>: group</p><blockquote><p><b>item</b></p><p><b>linkId</b>: patient.familyName</p><p><b>definition</b>: <a href=\"http://fhir.ch/ig/ch-core/StructureDefinition/ch-core-patient#Patient.name.family\">http://fhir.ch/ig/ch-core/StructureDefinition/ch-core-patient#Patient.name.family</a></p><p><b>text</b>: Name</p><p><b>type</b>: string</p></blockquote><blockquote><p><b>item</b></p><p><b>linkId</b>: patient.maidenName</p><p><b>definition</b>: <a href=\"http://fhir.ch/ig/ch-core/StructureDefinition/ch-core-patient#Patient.name.family\">http://fhir.ch/ig/ch-core/StructureDefinition/ch-core-patient#Patient.name.family</a></p><p><b>text</b>: Ledigname</p><p><b>type</b>: string</p></blockquote><blockquote><p><b>item</b></p><p><b>linkId</b>: patient.givenName</p><p><b>definition</b>: <a href=\"http://fhir.ch/ig/ch-core/StructureDefinition/ch-core-patient#Patient.name.given\">http://fhir.ch/ig/ch-core/StructureDefinition/ch-core-patient#Patient.name.given</a></p><p><b>text</b>: Vorname</p><p><b>type</b>: string</p></blockquote><blockquote><p><b>item</b></p><p><b>linkId</b>: patient.localPid</p><p><b>definition</b>: <a href=\"http://fhir.ch/ig/ch-core/StructureDefinition/ch-core-patient#Patient.identifier:LocalPid.value\">http://fhir.ch/ig/ch-core/StructureDefinition/ch-core-patient#Patient.identifier:LocalPid.value</a></p><p><b>text</b>: Lokale Patienten-ID</p><p><b>type</b>: string</p></blockquote><blockquote><p><b>item</b></p><p><b>hidden</b>: true</p><p><b>linkId</b>: patient.localPidDomain</p><p><b>definition</b>: <a href=\"http://fhir.ch/ig/ch-core/StructureDefinition/ch-core-patient#Patient.identifier:LocalPid.system\">http://fhir.ch/ig/ch-core/StructureDefinition/ch-core-patient#Patient.identifier:LocalPid.system</a></p><p><b>text</b>: Lokale Patienten-ID Domain</p><p><b>type</b>: string</p></blockquote><blockquote><p><b>item</b></p><p><b>linkId</b>: patient.birthDate</p><p><b>definition</b>: <a href=\"http://fhir.ch/ig/ch-core/StructureDefinition/ch-core-patient#Patient.birthDate\">http://fhir.ch/ig/ch-core/StructureDefinition/ch-core-patient#Patient.birthDate</a></p><p><b>text</b>: Geburtsdatum</p><p><b>type</b>: date</p></blockquote><blockquote><p><b>item</b></p><p><b>linkId</b>: patient.gender</p><p><b>definition</b>: <a href=\"http://fhir.ch/ig/ch-core/StructureDefinition/ch-core-patient#Patient.gender\">http://fhir.ch/ig/ch-core/StructureDefinition/ch-core-patient#Patient.gender</a></p><p><b>text</b>: Geschlecht</p><p><b>type</b>: choice</p></blockquote><blockquote><p><b>item</b></p><p><b>linkId</b>: patient.phone</p><p><b>definition</b>: <a href=\"http://fhir.ch/ig/ch-core/StructureDefinition/ch-core-patient#Patient.telecom.value\">http://fhir.ch/ig/ch-core/StructureDefinition/ch-core-patient#Patient.telecom.value</a></p><p><b>text</b>: Telefon</p><p><b>type</b>: string</p><p><b>repeats</b>: true</p></blockquote><blockquote><p><b>item</b></p><p><b>linkId</b>: patient.email</p><p><b>definition</b>: <a href=\"http://fhir.ch/ig/ch-core/StructureDefinition/ch-core-patient#Patient.telecom.value\">http://fhir.ch/ig/ch-core/StructureDefinition/ch-core-patient#Patient.telecom.value</a></p><p><b>text</b>: E-Mail</p><p><b>type</b>: string</p></blockquote><blockquote><p><b>item</b></p><p><b>linkId</b>: patient.streetAddressLine</p><p><b>definition</b>: <a href=\"http://fhir.ch/ig/ch-core/StructureDefinition/ch-core-patient#Patient.address.line\">http://fhir.ch/ig/ch-core/StructureDefinition/ch-core-patient#Patient.address.line</a></p><p><b>text</b>: Strasse, Hausnummer, Postfach etc.</p><p><b>type</b>: string</p><p><b>repeats</b>: true</p></blockquote><blockquote><p><b>item</b></p><p><b>linkId</b>: patient.postalCode</p><p><b>definition</b>: <a href=\"http://fhir.ch/ig/ch-core/StructureDefinition/ch-core-patient#Patient.address.postalCode\">http://fhir.ch/ig/ch-core/StructureDefinition/ch-core-patient#Patient.address.postalCode</a></p><p><b>text</b>: PLZ</p><p><b>type</b>: string</p></blockquote><blockquote><p><b>item</b></p><p><b>linkId</b>: patient.city</p><p><b>definition</b>: <a href=\"http://fhir.ch/ig/ch-core/StructureDefinition/ch-core-patient#Patient.address.city\">http://fhir.ch/ig/ch-core/StructureDefinition/ch-core-patient#Patient.address.city</a></p><p><b>text</b>: Ort</p><p><b>type</b>: string</p></blockquote><blockquote><p><b>item</b></p><p><b>linkId</b>: patient.country</p><p><b>definition</b>: <a href=\"http://fhir.ch/ig/ch-core/StructureDefinition/ch-core-patient#Patient.address.country\">http://fhir.ch/ig/ch-core/StructureDefinition/ch-core-patient#Patient.address.country</a></p><p><b>text</b>: Land</p><p><b>type</b>: string</p></blockquote></blockquote><blockquote><p><b>item</b></p><p><b>linkId</b>: requestedEncounter</p><p><b>definition</b>: <a href=\"http://fhir.ch/ig/ch-rad-order/StructureDefinition/ch-rad-order-servicerequest#ServiceRequest.extension:requestedEncounterDetails\">http://fhir.ch/ig/ch-rad-order/StructureDefinition/ch-rad-order-servicerequest#ServiceRequest.extension:requestedEncounterDetails</a></p><p><b>text</b>: Patientenaufnahme</p><p><b>type</b>: group</p><blockquote><p><b>item</b></p><p><b>linkId</b>: requestedEncounter.class</p><p><b>definition</b>: <a href=\"http://fhir.ch/ig/ch-orf/StructureDefinition/ch-orf-encounter#Encounter.class\">http://fhir.ch/ig/ch-orf/StructureDefinition/ch-orf-encounter#Encounter.class</a></p><p><b>text</b>: Voraussichtlich: Ambulant / Stationär / Notfall</p><p><b>type</b>: choice</p><p><b>required</b>: true</p></blockquote><blockquote><p><b>item</b></p><p><b>linkId</b>: requestedEncounter.desiredAccommodation</p><p><b>definition</b>: <a href=\"http://fhir.ch/ig/ch-orf/StructureDefinition/ch-orf-encounter#Encounter.extension:desiredAccommodation\">http://fhir.ch/ig/ch-orf/StructureDefinition/ch-orf-encounter#Encounter.extension:desiredAccommodation</a></p><p><b>text</b>: Zimmerkategorie</p><p><b>type</b>: choice</p></blockquote></blockquote><blockquote><p><b>item</b></p><p><b>linkId</b>: coverage</p><p><b>definition</b>: <a href=\"http://fhir.ch/ig/ch-rad-order/StructureDefinition/ch-rad-order-servicerequest#ServiceRequest.insurance\">http://fhir.ch/ig/ch-rad-order/StructureDefinition/ch-rad-order-servicerequest#ServiceRequest.insurance</a></p><p><b>text</b>: Kostenträger</p><p><b>type</b>: group</p><blockquote><p><b>item</b></p><p><b>linkId</b>: coverage.beneficiary</p><p><b>definition</b>: <a href=\"http://fhir.ch/ig/ch-orf/StructureDefinition/ch-orf-coverage#Coverage.beneficiary\">http://fhir.ch/ig/ch-orf/StructureDefinition/ch-orf-coverage#Coverage.beneficiary</a></p><p><b>text</b>: Begünstigter (Patient)</p><p><b>type</b>: group</p></blockquote><blockquote><p><b>item</b></p><p><b>linkId</b>: coverage.kvg</p><p><b>definition</b>: <a href=\"http://fhir.ch/ig/ch-orf/StructureDefinition/ch-orf-coverage#Coverage.type\">http://fhir.ch/ig/ch-orf/StructureDefinition/ch-orf-coverage#Coverage.type</a></p><p><b>text</b>: Krankenkasse (nach KVG)</p><p><b>type</b>: group</p></blockquote><blockquote><p><b>item</b></p><p><b>linkId</b>: coverage.uvg</p><p><b>definition</b>: <a href=\"http://fhir.ch/ig/ch-orf/StructureDefinition/ch-orf-coverage#Coverage.type\">http://fhir.ch/ig/ch-orf/StructureDefinition/ch-orf-coverage#Coverage.type</a></p><p><b>text</b>: Unfallversicherung (nach UVG)</p><p><b>type</b>: group</p></blockquote><blockquote><p><b>item</b></p><p><b>linkId</b>: coverage.vvg</p><p><b>definition</b>: <a href=\"http://fhir.ch/ig/ch-orf/StructureDefinition/ch-orf-coverage#Coverage.type\">http://fhir.ch/ig/ch-orf/StructureDefinition/ch-orf-coverage#Coverage.type</a></p><p><b>text</b>: Zusatzversicherung (nach VVG)</p><p><b>type</b>: group</p></blockquote><blockquote><p><b>item</b></p><p><b>linkId</b>: coverage.iv</p><p><b>definition</b>: <a href=\"http://fhir.ch/ig/ch-orf/StructureDefinition/ch-orf-coverage#Coverage.type\">http://fhir.ch/ig/ch-orf/StructureDefinition/ch-orf-coverage#Coverage.type</a></p><p><b>text</b>: Invalidenversicherung (IV)</p><p><b>type</b>: group</p></blockquote><blockquote><p><b>item</b></p><p><b>linkId</b>: coverage.mv</p><p><b>definition</b>: <a href=\"http://fhir.ch/ig/ch-orf/StructureDefinition/ch-orf-coverage#Coverage.type\">http://fhir.ch/ig/ch-orf/StructureDefinition/ch-orf-coverage#Coverage.type</a></p><p><b>text</b>: Militärversicherung (MV)</p><p><b>type</b>: group</p></blockquote><blockquote><p><b>item</b></p><p><b>linkId</b>: coverage.self</p><p><b>definition</b>: <a href=\"http://fhir.ch/ig/ch-orf/StructureDefinition/ch-orf-coverage#Coverage.type\">http://fhir.ch/ig/ch-orf/StructureDefinition/ch-orf-coverage#Coverage.type</a></p><p><b>text</b>: Selbstzahler</p><p><b>type</b>: group</p></blockquote><blockquote><p><b>item</b></p><p><b>linkId</b>: coverage.other</p><p><b>definition</b>: <a href=\"http://fhir.ch/ig/ch-orf/StructureDefinition/ch-orf-coverage#Coverage.type\">http://fhir.ch/ig/ch-orf/StructureDefinition/ch-orf-coverage#Coverage.type</a></p><p><b>text</b>: Anderer Kostenträger</p><p><b>type</b>: group</p></blockquote></blockquote><blockquote><p><b>item</b></p><p><b>linkId</b>: sender</p><p><b>text</b>: Absender</p><p><b>type</b>: group</p><p><b>required</b>: true</p><blockquote><p><b>item</b></p><p><b>linkId</b>: sender.author</p><p><b>definition</b>: <a href=\"http://fhir.ch/ig/ch-rad-order/StructureDefinition/ch-rad-order-composition#Composition.author\">http://fhir.ch/ig/ch-rad-order/StructureDefinition/ch-rad-order-composition#Composition.author</a></p><p><b>text</b>: Verantwortlicher</p><p><b>type</b>: group</p><p><b>required</b>: true</p></blockquote><blockquote><p><b>item</b></p><p><b>linkId</b>: sender.dataenterer</p><p><b>definition</b>: <a href=\"http://fhir.ch/ig/ch-rad-order/StructureDefinition/ch-rad-order-composition#Composition.extension:dataEnterer\">http://fhir.ch/ig/ch-rad-order/StructureDefinition/ch-rad-order-composition#Composition.extension:dataEnterer</a></p><p><b>text</b>: Erfasser</p><p><b>type</b>: group</p></blockquote></blockquote><blockquote><p><b>item</b></p><p><b>linkId</b>: receiver</p><p><b>definition</b>: <a href=\"http://fhir.ch/ig/ch-rad-order/StructureDefinition/ch-rad-order-composition#Composition.extension:receiver\">http://fhir.ch/ig/ch-rad-order/StructureDefinition/ch-rad-order-composition#Composition.extension:receiver</a></p><p><b>text</b>: Empfänger</p><p><b>type</b>: group</p><blockquote><p><b>item</b></p><p><b>linkId</b>: receiver.practitioner</p><p><b>definition</b>: <a href=\"http://fhir.ch/ig/ch-core/StructureDefinition/ch-core-practitionerrole#PractitionerRole.practitioner\">http://fhir.ch/ig/ch-core/StructureDefinition/ch-core-practitionerrole#PractitionerRole.practitioner</a></p><p><b>text</b>: Empfangende Person</p><p><b>type</b>: group</p></blockquote><blockquote><p><b>item</b></p><p><b>linkId</b>: receiver.organization</p><p><b>definition</b>: <a href=\"http://fhir.ch/ig/ch-core/StructureDefinition/ch-core-practitionerrole#PractitionerRole.organization\">http://fhir.ch/ig/ch-core/StructureDefinition/ch-core-practitionerrole#PractitionerRole.organization</a></p><p><b>text</b>: Empfangende Organisation</p><p><b>type</b>: group</p></blockquote></blockquote><blockquote><p><b>item</b></p><p><b>linkId</b>: receiverCopies</p><p><b>definition</b>: <a href=\"http://fhir.ch/ig/ch-rad-order/StructureDefinition/ch-rad-order-composition#Composition.extension:copyReceiver\">http://fhir.ch/ig/ch-rad-order/StructureDefinition/ch-rad-order-composition#Composition.extension:copyReceiver</a></p><p><b>text</b>: Kopieempfänger</p><p><b>type</b>: group</p><blockquote><p><b>item</b></p><p><b>linkId</b>: receiverCopy</p><p><b>text</b>: Kopieempfangende Organisation oder Person</p><p><b>type</b>: group</p><p><b>repeats</b>: true</p></blockquote></blockquote><blockquote><p><b>item</b></p><p><b>linkId</b>: appointment</p><p><b>definition</b>: <a href=\"http://fhir.ch/ig/ch-orf/StructureDefinition/ch-orf-servicerequest#ServiceRequest.extension:locationAndTime\">http://fhir.ch/ig/ch-orf/StructureDefinition/ch-orf-servicerequest#ServiceRequest.extension:locationAndTime</a></p><p><b>text</b>: Ort und Zeit der Durchführung der angeforderten Leistung</p><p><b>type</b>: group</p><p><b>repeats</b>: true</p><blockquote><p><b>item</b></p><p><b>linkId</b>: appointment.location</p><p><b>definition</b>: <a href=\"http://fhir.ch/ig/ch-orf/StructureDefinition/ch-orf-appointment#Appointment.participant.actor\">http://fhir.ch/ig/ch-orf/StructureDefinition/ch-orf-appointment#Appointment.participant.actor</a></p><p><b>text</b>: Ort der Durchführung</p><p><b>type</b>: group</p><p><b>required</b>: true</p></blockquote><blockquote><p><b>item</b></p><p><b>linkId</b>: appointment.requestedPeriod</p><p><b>definition</b>: <a href=\"http://fhir.ch/ig/ch-orf/StructureDefinition/ch-orf-appointment#Appointment.requestedPeriod\">http://fhir.ch/ig/ch-orf/StructureDefinition/ch-orf-appointment#Appointment.requestedPeriod</a></p><p><b>text</b>: Datum und Zeit, wann der Termin bevorzugt geplant werden soll</p><p><b>type</b>: group</p></blockquote><blockquote><p><b>item</b></p><p><b>linkId</b>: appointment.status</p><p><b>definition</b>: <a href=\"http://fhir.ch/ig/ch-orf/StructureDefinition/ch-orf-appointment#Appointment.status\">http://fhir.ch/ig/ch-orf/StructureDefinition/ch-orf-appointment#Appointment.status</a></p><p><b>text</b>: Status</p><p><b>type</b>: choice</p><p><b>required</b>: true</p></blockquote><blockquote><p><b>item</b></p><p><b>linkId</b>: appointment.patientInstruction</p><p><b>definition</b>: <a href=\"http://fhir.ch/ig/ch-orf/StructureDefinition/ch-orf-appointment#Appointment.patientInstruction\">http://fhir.ch/ig/ch-orf/StructureDefinition/ch-orf-appointment#Appointment.patientInstruction</a></p><p><b>text</b>: Patienteninformation für diesen Termin</p><p><b>type</b>: string</p></blockquote></blockquote><blockquote><p><b>item</b></p><p><b>linkId</b>: requestedService</p><p><b>text</b>: Angeforderte Leistung</p><p><b>type</b>: group</p><p><b>required</b>: true</p><h3>Items</h3><table class=\"grid\"><tr><td>-</td><td><b>LinkId</b></td><td><b>Definition</b></td><td><b>Text</b></td><td><b>Type</b></td><td><b>Required</b></td><td><b>AnswerValueSet</b></td></tr><tr><td>*</td><td>requestedService.service</td><td><a href=\"http://fhir.ch/ig/ch-rad-order/StructureDefinition/ch-rad-order-servicerequest#ServiceRequest.category.coding\">http://fhir.ch/ig/ch-rad-order/StructureDefinition/ch-rad-order-servicerequest#ServiceRequest.category.coding</a></td><td>Leistung</td><td>choice</td><td>true</td><td><a href=\"http://fhir.ch/ig/ch-rad-order/ValueSet/ch-rad-order-requested-service\">http://fhir.ch/ig/ch-rad-order/ValueSet/ch-rad-order-requested-service</a></td></tr></table></blockquote><blockquote><p><b>item</b></p><p><b>linkId</b>: reason</p><p><b>text</b>: Klinische Fragestellung</p><p><b>type</b>: group</p><h3>Items</h3><table class=\"grid\"><tr><td>-</td><td><b>LinkId</b></td><td><b>Definition</b></td><td><b>Text</b></td><td><b>Type</b></td><td><b>Repeats</b></td></tr><tr><td>*</td><td>reason.question</td><td><a href=\"http://fhir.ch/ig/ch-rad-order/StructureDefinition/ch-rad-order-servicerequest#ServiceRequest.reasonCode.text\">http://fhir.ch/ig/ch-rad-order/StructureDefinition/ch-rad-order-servicerequest#ServiceRequest.reasonCode.text</a></td><td>Fragestellung</td><td>string</td><td>true</td></tr></table></blockquote><blockquote><p><b>item</b></p><p><b>linkId</b>: imagingService</p><p><b>text</b>: Bildgebendes Verfahren</p><p><b>type</b>: group</p><h3>Items</h3><table class=\"grid\"><tr><td>-</td><td><b>LinkId</b></td><td><b>Definition</b></td><td><b>Text</b></td><td><b>Type</b></td><td><b>AnswerValueSet</b></td></tr><tr><td>*</td><td>imagingService.type</td><td><a href=\"http://fhir.ch/ig/ch-rad-order/StructureDefinition/ch-rad-order-servicerequest#ServiceRequest.code.coding:RdlxModType\">http://fhir.ch/ig/ch-rad-order/StructureDefinition/ch-rad-order-servicerequest#ServiceRequest.code.coding:RdlxModType</a></td><td>Art</td><td>choice</td><td><a href=\"http://fhir.ch/ig/ch-rad-order/ValueSet/ch-rad-order-modality-type\">http://fhir.ch/ig/ch-rad-order/ValueSet/ch-rad-order-modality-type</a></td></tr></table></blockquote><blockquote><p><b>item</b></p><p><b>linkId</b>: orderDetail</p><p><b>text</b>: Weitere Angaben zur Bildgebung</p><p><b>type</b>: group</p><blockquote><p><b>item</b></p><p><b>linkId</b>: orderDetail.imagingRegion</p><p><b>definition</b>: <a href=\"http://fhir.ch/ig/ch-rad-order/StructureDefinition/ch-rad-order-servicerequest#ServiceRequest.orderDetail:imagingRegion\">http://fhir.ch/ig/ch-rad-order/StructureDefinition/ch-rad-order-servicerequest#ServiceRequest.orderDetail:imagingRegion</a></p><p><b>text</b>: Region</p><p><b>type</b>: choice</p><p><b>repeats</b>: true</p><p><b>answerValueSet</b>: <a href=\"http://fhir.ch/ig/ch-rad-order/ValueSet/ch-rad-order-imaging-region\">http://fhir.ch/ig/ch-rad-order/ValueSet/ch-rad-order-imaging-region</a></p></blockquote><blockquote><p><b>item</b></p><p><b>linkId</b>: orderDetail.imagingFocus</p><p><b>definition</b>: <a href=\"http://fhir.ch/ig/ch-rad-order/StructureDefinition/ch-rad-order-servicerequest#ServiceRequest.bodySite\">http://fhir.ch/ig/ch-rad-order/StructureDefinition/ch-rad-order-servicerequest#ServiceRequest.bodySite</a></p><p><b>text</b>: Fokus</p><p><b>type</b>: choice</p><p><b>repeats</b>: true</p><p><b>answerValueSet</b>: <a href=\"http://fhir.ch/ig/ch-rad-order/ValueSet/ch-rad-order-imaging-focus\">http://fhir.ch/ig/ch-rad-order/ValueSet/ch-rad-order-imaging-focus</a></p></blockquote><blockquote><p><b>item</b></p><p><b>linkId</b>: orderDetail.laterality</p><p><b>definition</b>: <a href=\"http://fhir.ch/ig/ch-rad-order/StructureDefinition/ch-rad-order-servicerequest#ServiceRequest.orderDetail:laterality\">http://fhir.ch/ig/ch-rad-order/StructureDefinition/ch-rad-order-servicerequest#ServiceRequest.orderDetail:laterality</a></p><p><b>text</b>: Seitenangabe</p><p><b>type</b>: choice</p><p><b>answerValueSet</b>: <a href=\"http://fhir.ch/ig/ch-rad-order/ValueSet/ch-rad-order-laterality\">http://fhir.ch/ig/ch-rad-order/ValueSet/ch-rad-order-laterality</a></p></blockquote><blockquote><p><b>item</b></p><p><b>linkId</b>: orderDetail.viewType</p><p><b>definition</b>: <a href=\"http://fhir.ch/ig/ch-rad-order/StructureDefinition/ch-rad-order-servicerequest#ServiceRequest.orderDetail:viewType\">http://fhir.ch/ig/ch-rad-order/StructureDefinition/ch-rad-order-servicerequest#ServiceRequest.orderDetail:viewType</a></p><p><b>text</b>: Ansicht</p><p><b>type</b>: choice</p><p><b>repeats</b>: true</p><p><b>answerValueSet</b>: <a href=\"http://fhir.ch/ig/ch-rad-order/ValueSet/ch-rad-order-view-type\">http://fhir.ch/ig/ch-rad-order/ValueSet/ch-rad-order-view-type</a></p></blockquote><blockquote><p><b>item</b></p><p><b>linkId</b>: orderDetail.maneuverType</p><p><b>definition</b>: <a href=\"http://fhir.ch/ig/ch-rad-order/StructureDefinition/ch-rad-order-servicerequest#ServiceRequest.orderDetail:maneuverType\">http://fhir.ch/ig/ch-rad-order/StructureDefinition/ch-rad-order-servicerequest#ServiceRequest.orderDetail:maneuverType</a></p><p><b>text</b>: Manöver</p><p><b>type</b>: choice</p><p><b>repeats</b>: true</p><p><b>answerValueSet</b>: <a href=\"http://fhir.ch/ig/ch-rad-order/ValueSet/ch-rad-order-maneuver-type\">http://fhir.ch/ig/ch-rad-order/ValueSet/ch-rad-order-maneuver-type</a></p></blockquote><blockquote><p><b>item</b></p><p><b>linkId</b>: orderDetail.guidanceForAction</p><p><b>definition</b>: <a href=\"http://fhir.ch/ig/ch-rad-order/StructureDefinition/ch-rad-order-servicerequest#ServiceRequest.orderDetail:guidanceForAction\">http://fhir.ch/ig/ch-rad-order/StructureDefinition/ch-rad-order-servicerequest#ServiceRequest.orderDetail:guidanceForAction</a></p><p><b>text</b>: Handlungsanleitung</p><p><b>type</b>: choice</p><p><b>enableBehavior</b>: any</p><p><b>repeats</b>: true</p><p><b>answerValueSet</b>: <a href=\"http://fhir.ch/ig/ch-rad-order/ValueSet/ch-rad-order-guidance-for-action\">http://fhir.ch/ig/ch-rad-order/ValueSet/ch-rad-order-guidance-for-action</a></p></blockquote></blockquote><blockquote><p><b>item</b></p><p><b>linkId</b>: desiredRadiologist</p><p><b>definition</b>: <a href=\"http://fhir.ch/ig/ch-rad-order/StructureDefinition/ch-rad-order-servicerequest#ServiceRequest.performer\">http://fhir.ch/ig/ch-rad-order/StructureDefinition/ch-rad-order-servicerequest#ServiceRequest.performer</a></p><p><b>text</b>: Gewünschter Radiologe für die Befundung / für die Intervention</p><p><b>type</b>: group</p><h3>Items</h3><table class=\"grid\"><tr><td>-</td><td><b>LinkId</b></td><td><b>Definition</b></td><td><b>Text</b></td><td><b>Type</b></td></tr><tr><td>*</td><td>desiredRadiologist.familyName</td><td><a href=\"http://fhir.ch/ig/ch-core/StructureDefinition/ch-core-practitioner#Practitioner.name.family\">http://fhir.ch/ig/ch-core/StructureDefinition/ch-core-practitioner#Practitioner.name.family</a></td><td>Name</td><td>string</td></tr><tr><td>*</td><td>desiredRadiologist.givenName</td><td><a href=\"http://fhir.ch/ig/ch-core/StructureDefinition/ch-core-practitioner#Practitioner.name.given\">http://fhir.ch/ig/ch-core/StructureDefinition/ch-core-practitioner#Practitioner.name.given</a></td><td>Vorname</td><td>string</td></tr></table></blockquote><blockquote><p><b>item</b></p><p><b>linkId</b>: diagnosisList</p><p><b>text</b>: Diagnosen und Befunde</p><p><b>type</b>: group</p><h3>Items</h3><table class=\"grid\"><tr><td>-</td><td><b>LinkId</b></td><td><b>Definition</b></td><td><b>Text</b></td><td><b>Type</b></td><td><b>Repeats</b></td></tr><tr><td>*</td><td>diagnosisList.primaryDiagnosis</td><td><a href=\"http://fhir.ch/ig/ch-rad-order/StructureDefinition/ch-rad-order-servicerequest#ServiceRequest.reasonReference\">http://fhir.ch/ig/ch-rad-order/StructureDefinition/ch-rad-order-servicerequest#ServiceRequest.reasonReference</a></td><td>Hauptdiagnose</td><td>string</td><td>true</td></tr><tr><td>*</td><td>diagnosisList.secondaryDiagnosis</td><td><a href=\"http://fhir.ch/ig/ch-rad-order/StructureDefinition/ch-rad-order-servicerequest#ServiceRequest.supportingInfo:diagnosis\">http://fhir.ch/ig/ch-rad-order/StructureDefinition/ch-rad-order-servicerequest#ServiceRequest.supportingInfo:diagnosis</a></td><td>Nebendiagnose</td><td>string</td><td>true</td></tr><tr><td>*</td><td>diagnosisList.bodyHeight</td><td><a href=\"http://fhir.ch/ig/ch-rad-order/StructureDefinition/ch-rad-order-servicerequest#ServiceRequest.supportingInfo:bodyHeight\">http://fhir.ch/ig/ch-rad-order/StructureDefinition/ch-rad-order-servicerequest#ServiceRequest.supportingInfo:bodyHeight</a></td><td>Grösse (cm)</td><td>quantity</td><td>false</td></tr><tr><td>*</td><td>diagnosisList.bodyWeight</td><td><a href=\"http://fhir.ch/ig/ch-rad-order/StructureDefinition/ch-rad-order-servicerequest#ServiceRequest.supportingInfo:bodyWeight\">http://fhir.ch/ig/ch-rad-order/StructureDefinition/ch-rad-order-servicerequest#ServiceRequest.supportingInfo:bodyWeight</a></td><td>Gewicht (kg)</td><td>quantity</td><td>false</td></tr></table></blockquote><blockquote><p><b>item</b></p><p><b>linkId</b>: caveat</p><p><b>definition</b>: <a href=\"http://fhir.ch/ig/ch-rad-order/StructureDefinition/ch-rad-order-servicerequest#ServiceRequest.supportingInfo:caveats\">http://fhir.ch/ig/ch-rad-order/StructureDefinition/ch-rad-order-servicerequest#ServiceRequest.supportingInfo:caveats</a></p><p><b>text</b>: Caveats</p><p><b>type</b>: group</p><blockquote><p><b>item</b></p><p><b>linkId</b>: caveat.bloodCoagulation</p><p><b>definition</b>: <a href=\"http://fhir.ch/ig/ch-rad-order/StructureDefinition/ch-rad-order-caveat-condition#Condition.code\">http://fhir.ch/ig/ch-rad-order/StructureDefinition/ch-rad-order-caveat-condition#Condition.code</a></p><p><b>text</b>: Beinträchtigte Blutgerinnung</p><p><b>type</b>: boolean</p></blockquote><blockquote><p><b>item</b></p><p><b>linkId</b>: caveat.renalInsufficiency</p><p><b>definition</b>: <a href=\"http://fhir.ch/ig/ch-rad-order/StructureDefinition/ch-rad-order-caveat-condition#Condition.code\">http://fhir.ch/ig/ch-rad-order/StructureDefinition/ch-rad-order-caveat-condition#Condition.code</a></p><p><b>text</b>: Niereninsuffizienz</p><p><b>type</b>: boolean</p></blockquote><blockquote><p><b>item</b></p><p><b>linkId</b>: caveat.claustrophobia</p><p><b>definition</b>: <a href=\"http://fhir.ch/ig/ch-rad-order/StructureDefinition/ch-rad-order-caveat-condition#Condition.code\">http://fhir.ch/ig/ch-rad-order/StructureDefinition/ch-rad-order-caveat-condition#Condition.code</a></p><p><b>text</b>: Klaustrophobie</p><p><b>type</b>: boolean</p></blockquote><blockquote><p><b>item</b></p><p><b>linkId</b>: caveat.bodyPiercing</p><p><b>definition</b>: <a href=\"http://fhir.ch/ig/ch-rad-order/StructureDefinition/ch-rad-order-caveat-condition#Condition.code\">http://fhir.ch/ig/ch-rad-order/StructureDefinition/ch-rad-order-caveat-condition#Condition.code</a></p><p><b>text</b>: Körperpiercing</p><p><b>type</b>: boolean</p></blockquote><blockquote><p><b>item</b></p><p><b>linkId</b>: caveat.device</p><p><b>definition</b>: <a href=\"http://fhir.ch/ig/ch-rad-order/StructureDefinition/ch-rad-order-caveat-condition#Condition.code\">http://fhir.ch/ig/ch-rad-order/StructureDefinition/ch-rad-order-caveat-condition#Condition.code</a></p><p><b>text</b>: Device (Herzschrittmacher, Herzklappenersatz, Insulinpumpe etc.)</p><p><b>type</b>: choice</p><p><b>repeats</b>: true</p><p><b>answerValueSet</b>: <a href=\"http://fhir.ch/ig/ch-rad-order/ValueSet/ch-rad-order-caveat-device\">http://fhir.ch/ig/ch-rad-order/ValueSet/ch-rad-order-caveat-device</a></p></blockquote><blockquote><p><b>item</b></p><p><b>linkId</b>: caveat.hyperthyroidism</p><p><b>definition</b>: <a href=\"http://fhir.ch/ig/ch-rad-order/StructureDefinition/ch-rad-order-caveat-condition#Condition.code\">http://fhir.ch/ig/ch-rad-order/StructureDefinition/ch-rad-order-caveat-condition#Condition.code</a></p><p><b>text</b>: Hyperthyreose</p><p><b>type</b>: boolean</p></blockquote><blockquote><p><b>item</b></p><p><b>linkId</b>: caveat.diabetes</p><p><b>definition</b>: <a href=\"http://fhir.ch/ig/ch-rad-order/StructureDefinition/ch-rad-order-caveat-condition#Condition.code\">http://fhir.ch/ig/ch-rad-order/StructureDefinition/ch-rad-order-caveat-condition#Condition.code</a></p><p><b>text</b>: Diabetes mellitus</p><p><b>type</b>: boolean</p></blockquote><blockquote><p><b>item</b></p><p><b>linkId</b>: caveat.gravida</p><p><b>definition</b>: <a href=\"http://fhir.ch/ig/ch-rad-order/StructureDefinition/ch-rad-order-caveat-condition#Condition.code\">http://fhir.ch/ig/ch-rad-order/StructureDefinition/ch-rad-order-caveat-condition#Condition.code</a></p><p><b>text</b>: Schwangerschaft</p><p><b>type</b>: boolean</p></blockquote><blockquote><p><b>item</b></p><p><b>linkId</b>: caveat.contrastMediaAllergy</p><p><b>definition</b>: <a href=\"http://fhir.ch/ig/ch-rad-order/StructureDefinition/ch-rad-order-caveat-condition#Condition.code\">http://fhir.ch/ig/ch-rad-order/StructureDefinition/ch-rad-order-caveat-condition#Condition.code</a></p><p><b>text</b>: Kontrastmittelallergie</p><p><b>type</b>: boolean</p></blockquote><blockquote><p><b>item</b></p><p><b>linkId</b>: caveat.drugPrescription</p><p><b>definition</b>: <a href=\"http://fhir.ch/ig/ch-rad-order/StructureDefinition/ch-rad-order-caveat-condition#Condition.code\">http://fhir.ch/ig/ch-rad-order/StructureDefinition/ch-rad-order-caveat-condition#Condition.code</a></p><p><b>text</b>: Relevante Medikamente, z.B. Metformin</p><p><b>type</b>: choice</p><p><b>repeats</b>: true</p><p><b>answerValueSet</b>: <a href=\"http://fhir.ch/ig/ch-rad-order/ValueSet/ch-rad-order-caveat-substance\">http://fhir.ch/ig/ch-rad-order/ValueSet/ch-rad-order-caveat-substance</a></p></blockquote></blockquote><blockquote><p><b>item</b></p><p><b>linkId</b>: previousResults</p><p><b>definition</b>: <a href=\"http://fhir.ch/ig/ch-rad-order/StructureDefinition/ch-rad-order-servicerequest#ServiceRequest.supportingInfo:previousImagingResults\">http://fhir.ch/ig/ch-rad-order/StructureDefinition/ch-rad-order-servicerequest#ServiceRequest.supportingInfo:previousImagingResults</a></p><p><b>text</b>: Vorherige Untersuchungsresultate</p><p><b>type</b>: group</p><blockquote><p><b>item</b></p><p><b>linkId</b>: previousResults.attachment</p><p><b>text</b>: Anhang</p><p><b>type</b>: group</p><p><b>repeats</b>: true</p></blockquote></blockquote><blockquote><p><b>item</b></p><p><b>linkId</b>: note</p><p><b>text</b>: Bemerkungen</p><p><b>type</b>: group</p><p><b>repeats</b>: true</p><h3>Items</h3><table class=\"grid\"><tr><td>-</td><td><b>LinkId</b></td><td><b>Definition</b></td><td><b>Text</b></td><td><b>Type</b></td><td><b>Required</b></td></tr><tr><td>*</td><td>note.text</td><td><a href=\"http://fhir.ch/ig/ch-rad-order/StructureDefinition/ch-rad-order-servicerequest#ServiceRequest.note.text\">http://fhir.ch/ig/ch-rad-order/StructureDefinition/ch-rad-order-servicerequest#ServiceRequest.note.text</a></td><td>Kommentar</td><td>string</td><td>true</td></tr></table></blockquote></div>"
          },
          "extension": [
            {
              "url": "http://hl7.org/fhir/uv/sdc/StructureDefinition/sdc-questionnaire-targetStructureMap",
              "valueCanonical": "http://fhir.ch/ig/ch-rad-order/StructureMap/RadOrderQrToBundle"
            },
            {
              "url": "http://hl7.org/fhir/uv/sdc/StructureDefinition/sdc-questionnaire-sourceStructureMap",
              "valueCanonical": "http://fhir.ch/ig/ch-orf/StructureMap/OrfPrepopBundleToQr"
            },
            {
              "url": "http://hl7.org/fhir/uv/sdc/StructureDefinition/sdc-questionnaire-launchContext",
              "extension": [
                {
                  "url": "name",
                  "valueId": "Bundle"
                },
                {
                  "url": "type",
                  "valueCode": "Bundle"
                },
                {
                  "url": "description",
                  "valueString": "The Bundle that is to be used to pre-populate the form"
                }
              ]
            }
          ],
          "url": "http://fhir.ch/ig/ch-rad-order/Questionnaire/QuestionnaireRadiologyOrder",
          "name": "QuestionnaireRadiologyOrder",
          "title": "Questionnaire Radiology Order",
          "derivedFrom": [
            "http://fhir.ch/ig/ch-orf/StructureDefinition/ch-orf-questionnaire"
          ],
          "status": "active",
          "subjectType": [
            "Patient"
          ],
          "date": "2021-02-24",
          "publisher": "HL7 Switzerland",
          "item": [
            {
              "linkId": "order",
              "definition": "http://fhir.ch/ig/ch-rad-order/StructureDefinition/ch-rad-order-document#Bundle",
              "text": "Auftrag",
              "type": "group",
              "required": true,
              "item": [
                {
                  "linkId": "order.title",
                  "definition": "http://fhir.ch/ig/ch-rad-order/StructureDefinition/ch-rad-order-composition#Composition.title",
                  "text": "Titel",
                  "type": "string",
                  "required": true,
                  "readOnly": true
                },
                {
                  "linkId": "order.type",
                  "definition": "http://fhir.ch/ig/ch-rad-order/StructureDefinition/ch-rad-order-composition#Composition.type",
                  "text": "Typ",
                  "type": "choice",
                  "required": true,
                  "readOnly": true,
                  "answerValueSet": "http://fhir.ch/ig/ch-epr-term/ValueSet/DocumentEntry.typeCode"
                },
                {
                  "linkId": "order.category",
                  "definition": "http://fhir.ch/ig/ch-rad-order/StructureDefinition/ch-rad-order-composition#Composition.category",
                  "text": "Kategorie",
                  "type": "choice",
                  "required": true,
                  "readOnly": true,
                  "answerValueSet": "http://fhir.ch/ig/ch-epr-term/ValueSet/DocumentEntry.classCode"
                },
                {
                  "linkId": "order.placerOrderIdentifier",
                  "definition": "http://fhir.ch/ig/ch-rad-order/StructureDefinition/ch-rad-order-servicerequest#ServiceRequest.identifier:placerOrderIdentifier.value",
                  "text": "Auftragsnummer des Auftraggebers",
                  "type": "string",
                  "required": true
                },
                {
                  "extension": [
                    {
                      "url": "http://hl7.org/fhir/StructureDefinition/questionnaire-hidden",
                      "valueBoolean": true
                    }
                  ],
                  "linkId": "order.placerOrderIdentifierDomain",
                  "definition": "http://fhir.ch/ig/ch-rad-order/StructureDefinition/ch-rad-order-servicerequest#ServiceRequest.identifier:placerOrderIdentifier.system",
                  "text": "Identifier Domain der Auftragsnummer des Auftraggebers",
                  "type": "string",
                  "required": true
                },
                {
                  "linkId": "order.fillerOrderIdentifier",
                  "definition": "http://fhir.ch/ig/ch-rad-order/StructureDefinition/ch-rad-order-servicerequest#ServiceRequest.identifier:fillerOrderIdentifier.value",
                  "text": "Auftragsnummer des Auftragsempfängers",
                  "type": "string"
                },
                {
                  "extension": [
                    {
                      "url": "http://hl7.org/fhir/StructureDefinition/questionnaire-hidden",
                      "valueBoolean": true
                    }
                  ],
                  "linkId": "order.fillerOrderIdentifierDomain",
                  "definition": "http://fhir.ch/ig/ch-rad-order/StructureDefinition/ch-rad-order-servicerequest#ServiceRequest.identifier:fillerOrderIdentifier.system",
                  "text": "Identifier Domain der Auftragsnummer des Auftragsempfängers",
                  "type": "string"
                },
                {
                  "extension": [
                    {
                      "url": "http://hl7.org/fhir/StructureDefinition/questionnaire-hidden",
                      "valueBoolean": true
                    }
                  ],
                  "linkId": "order.precedentDocumentIdentifier",
                  "definition": "http://fhir.ch/ig/ch-rad-order/StructureDefinition/ch-rad-order-composition#Composition.extension:precedentDocument",
                  "text": "Identifier des Vorgängerdokuments",
                  "type": "string"
                },
                {
                  "linkId": "order.notificationContactDocument",
                  "definition": "http://fhir.ch/ig/ch-rad-order/StructureDefinition/ch-rad-order-composition#Composition.extension:urgentNoficationContactForThisDocument",
                  "text": "Dringender Benachrichtigungskontakt für dieses Dokument",
                  "type": "group",
                  "item": [
                    {
                      "linkId": "order.notificationContactDocument.practitioner",
                      "definition": "http://fhir.ch/ig/ch-core/StructureDefinition/ch-core-practitionerrole#PractitionerRole.practitioner",
                      "text": "Zu benachrichtigende Person",
                      "type": "group",
                      "item": [
                        {
                          "linkId": "order.notificationContactDocument.practitioner.title",
                          "definition": "http://fhir.ch/ig/ch-core/StructureDefinition/ch-core-practitioner#Practitioner.name.prefix",
                          "text": "Titel",
                          "type": "string"
                        },
                        {
                          "linkId": "order.notificationContactDocument.practitioner.familyName",
                          "definition": "http://fhir.ch/ig/ch-core/StructureDefinition/ch-core-practitioner#Practitioner.name.family",
                          "text": "Name",
                          "type": "string"
                        },
                        {
                          "linkId": "order.notificationContactDocument.practitioner.givenName",
                          "definition": "http://fhir.ch/ig/ch-core/StructureDefinition/ch-core-practitioner#Practitioner.name.given",
                          "text": "Vorname",
                          "type": "string"
                        },
                        {
                          "linkId": "order.notificationContactDocument.practitioner.phone",
                          "definition": "http://fhir.ch/ig/ch-core/StructureDefinition/ch-core-practitioner#Practitioner.telecom.value",
                          "text": "Telefon",
                          "type": "string"
                        },
                        {
                          "linkId": "order.notificationContactDocument.practitioner.email",
                          "definition": "http://fhir.ch/ig/ch-core/StructureDefinition/ch-core-practitioner#Practitioner.telecom.value",
                          "text": "E-Mail",
                          "type": "string"
                        }
                      ]
                    }
                  ]
                },
                {
                  "linkId": "order.notificationContactDocumentResponse",
                  "definition": "http://fhir.ch/ig/ch-rad-order/StructureDefinition/ch-rad-order-composition#Composition.extension:urgentNoficationContactForTheResponseToThisDocument",
                  "text": "Dringender Benachrichtigungskontakt für die Antwort auf dieses Dokument",
                  "type": "group",
                  "item": [
                    {
                      "linkId": "order.notificationContactDocumentResponse.practitioner",
                      "definition": "http://fhir.ch/ig/ch-core/StructureDefinition/ch-core-practitionerrole#PractitionerRole.practitioner",
                      "text": "Zu benachrichtigende Person",
                      "type": "group",
                      "item": [
                        {
                          "linkId": "order.notificationContactDocumentResponse.practitioner.title",
                          "definition": "http://fhir.ch/ig/ch-core/StructureDefinition/ch-core-practitioner#Practitioner.name.prefix",
                          "text": "Titel",
                          "type": "string"
                        },
                        {
                          "linkId": "order.notificationContactDocumentResponse.practitioner.familyName",
                          "definition": "http://fhir.ch/ig/ch-core/StructureDefinition/ch-core-practitioner#Practitioner.name.family",
                          "text": "Name",
                          "type": "string"
                        },
                        {
                          "linkId": "order.notificationContactDocumentResponse.practitioner.givenName",
                          "definition": "http://fhir.ch/ig/ch-core/StructureDefinition/ch-core-practitioner#Practitioner.name.given",
                          "text": "Vorname",
                          "type": "string"
                        },
                        {
                          "linkId": "order.notificationContactDocumentResponse.practitioner.phone",
                          "definition": "http://fhir.ch/ig/ch-core/StructureDefinition/ch-core-practitioner#Practitioner.telecom.value",
                          "text": "Telefon",
                          "type": "string"
                        },
                        {
                          "linkId": "order.notificationContactDocumentResponse.practitioner.email",
                          "definition": "http://fhir.ch/ig/ch-core/StructureDefinition/ch-core-practitioner#Practitioner.telecom.value",
                          "text": "E-Mail",
                          "type": "string"
                        }
                      ]
                    }
                  ]
                },
                {
                  "linkId": "order.priority",
                  "definition": "http://fhir.ch/ig/ch-rad-order/StructureDefinition/ch-rad-order-servicerequest#ServiceRequest.priority",
                  "text": "Auftragspriorität",
                  "type": "choice",
                  "answerOption": [
                    {
                      "valueCoding": {
                        "system": "http://hl7.org/fhir/request-priority",
                        "code": "routine",
                        "display": "Die Anfrage hat normale Priorität."
                      },
                      "initialSelected": true
                    },
                    {
                      "valueCoding": {
                        "system": "http://hl7.org/fhir/request-priority",
                        "code": "urgent",
                        "display": "Die Anfrage sollte dringend bearbeitet werden - höhere Priorität als normal."
                      }
                    },
                    {
                      "valueCoding": {
                        "system": "http://hl7.org/fhir/request-priority",
                        "code": "asap",
                        "display": "Die Anfrage sollte so schnell wie möglich bearbeitet werden - höhere Priorität als dringend."
                      }
                    },
                    {
                      "valueCoding": {
                        "system": "http://hl7.org/fhir/request-priority",
                        "code": "stat",
                        "display": "Die Anfrage sollte sofort bearbeitet werden - höchstmögliche Priorität. Z.B. bei einem Notfall."
                      }
                    }
                  ]
                }
              ]
            },
            {
              "linkId": "patient",
              "definition": "http://fhir.ch/ig/ch-rad-order/StructureDefinition/ch-rad-order-composition#Composition.subject",
              "text": "Patient",
              "type": "group",
              "item": [
                {
                  "linkId": "patient.familyName",
                  "definition": "http://fhir.ch/ig/ch-core/StructureDefinition/ch-core-patient#Patient.name.family",
                  "text": "Name",
                  "type": "string"
                },
                {
                  "linkId": "patient.maidenName",
                  "definition": "http://fhir.ch/ig/ch-core/StructureDefinition/ch-core-patient#Patient.name.family",
                  "text": "Ledigname",
                  "type": "string"
                },
                {
                  "linkId": "patient.givenName",
                  "definition": "http://fhir.ch/ig/ch-core/StructureDefinition/ch-core-patient#Patient.name.given",
                  "text": "Vorname",
                  "type": "string"
                },
                {
                  "linkId": "patient.localPid",
                  "definition": "http://fhir.ch/ig/ch-core/StructureDefinition/ch-core-patient#Patient.identifier:LocalPid.value",
                  "text": "Lokale Patienten-ID",
                  "type": "string"
                },
                {
                  "extension": [
                    {
                      "url": "http://hl7.org/fhir/StructureDefinition/questionnaire-hidden",
                      "valueBoolean": true
                    }
                  ],
                  "linkId": "patient.localPidDomain",
                  "definition": "http://fhir.ch/ig/ch-core/StructureDefinition/ch-core-patient#Patient.identifier:LocalPid.system",
                  "text": "Lokale Patienten-ID Domain",
                  "type": "string"
                },
                {
                  "linkId": "patient.birthDate",
                  "definition": "http://fhir.ch/ig/ch-core/StructureDefinition/ch-core-patient#Patient.birthDate",
                  "text": "Geburtsdatum",
                  "type": "date"
                },
                {
                  "linkId": "patient.gender",
                  "definition": "http://fhir.ch/ig/ch-core/StructureDefinition/ch-core-patient#Patient.gender",
                  "text": "Geschlecht",
                  "type": "choice",
                  "answerOption": [
                    {
                      "valueCoding": {
                        "system": "http://hl7.org/fhir/administrative-gender",
                        "code": "male",
                        "display": "Männlich"
                      },
                      "initialSelected": true
                    },
                    {
                      "valueCoding": {
                        "system": "http://hl7.org/fhir/administrative-gender",
                        "code": "female",
                        "display": "Weiblich"
                      }
                    },
                    {
                      "valueCoding": {
                        "system": "http://hl7.org/fhir/administrative-gender",
                        "code": "other",
                        "display": "Anderes"
                      }
                    }
                  ]
                },
                {
                  "linkId": "patient.phone",
                  "definition": "http://fhir.ch/ig/ch-core/StructureDefinition/ch-core-patient#Patient.telecom.value",
                  "text": "Telefon",
                  "type": "string",
                  "repeats": true
                },
                {
                  "linkId": "patient.email",
                  "definition": "http://fhir.ch/ig/ch-core/StructureDefinition/ch-core-patient#Patient.telecom.value",
                  "text": "E-Mail",
                  "type": "string"
                },
                {
                  "linkId": "patient.streetAddressLine",
                  "definition": "http://fhir.ch/ig/ch-core/StructureDefinition/ch-core-patient#Patient.address.line",
                  "text": "Strasse, Hausnummer, Postfach etc.",
                  "type": "string",
                  "repeats": true
                },
                {
                  "linkId": "patient.postalCode",
                  "definition": "http://fhir.ch/ig/ch-core/StructureDefinition/ch-core-patient#Patient.address.postalCode",
                  "text": "PLZ",
                  "type": "string"
                },
                {
                  "linkId": "patient.city",
                  "definition": "http://fhir.ch/ig/ch-core/StructureDefinition/ch-core-patient#Patient.address.city",
                  "text": "Ort",
                  "type": "string"
                },
                {
                  "linkId": "patient.country",
                  "definition": "http://fhir.ch/ig/ch-core/StructureDefinition/ch-core-patient#Patient.address.country",
                  "text": "Land",
                  "type": "string"
                }
              ]
            },
            {
              "linkId": "requestedEncounter",
              "definition": "http://fhir.ch/ig/ch-rad-order/StructureDefinition/ch-rad-order-servicerequest#ServiceRequest.extension:requestedEncounterDetails",
              "text": "Patientenaufnahme",
              "type": "group",
              "item": [
                {
                  "linkId": "requestedEncounter.class",
                  "definition": "http://fhir.ch/ig/ch-orf/StructureDefinition/ch-orf-encounter#Encounter.class",
                  "text": "Voraussichtlich: Ambulant / Stationär / Notfall",
                  "type": "choice",
                  "required": true,
                  "answerOption": [
                    {
                      "valueCoding": {
                        "system": "http://terminology.hl7.org/CodeSystem/v3-ActCode",
                        "code": "AMB",
                        "display": "Ambulant"
                      }
                    },
                    {
                      "valueCoding": {
                        "system": "http://terminology.hl7.org/CodeSystem/v3-ActCode",
                        "code": "IMP",
                        "display": "Stationär"
                      }
                    },
                    {
                      "valueCoding": {
                        "system": "http://terminology.hl7.org/CodeSystem/v3-ActCode",
                        "code": "EMER",
                        "display": "Notfall"
                      }
                    }
                  ]
                },
                {
                  "linkId": "requestedEncounter.desiredAccommodation",
                  "definition": "http://fhir.ch/ig/ch-orf/StructureDefinition/ch-orf-encounter#Encounter.extension:desiredAccommodation",
                  "text": "Zimmerkategorie",
                  "type": "choice",
                  "answerOption": [
                    {
                      "valueCoding": {
                        "system": "http://terminology.hl7.org/CodeSystem/v3-ActCode",
                        "code": "P",
                        "display": "Einerzimmer"
                      }
                    },
                    {
                      "valueCoding": {
                        "system": "http://terminology.hl7.org/CodeSystem/v3-ActCode",
                        "code": "SP",
                        "display": "Zweierzimmer"
                      }
                    },
                    {
                      "valueCoding": {
                        "system": "http://terminology.hl7.org/CodeSystem/v3-ActCode",
                        "code": "W",
                        "display": "Mehrbettzimmer"
                      }
                    }
                  ]
                }
              ]
            },
            {
              "linkId": "coverage",
              "definition": "http://fhir.ch/ig/ch-rad-order/StructureDefinition/ch-rad-order-servicerequest#ServiceRequest.insurance",
              "text": "Kostenträger",
              "type": "group",
              "item": [
                {
                  "linkId": "coverage.beneficiary",
                  "definition": "http://fhir.ch/ig/ch-orf/StructureDefinition/ch-orf-coverage#Coverage.beneficiary",
                  "text": "Begünstigter (Patient)",
                  "type": "group",
                  "item": [
                    {
                      "linkId": "coverage.beneficiary.ahvn13",
                      "definition": "http://fhir.ch/ig/ch-core/StructureDefinition/ch-core-patient#Patient.identifier:AHVN13",
                      "text": "AHV-Nr. des Patienten",
                      "type": "string"
                    }
                  ]
                },
                {
                  "linkId": "coverage.kvg",
                  "definition": "http://fhir.ch/ig/ch-orf/StructureDefinition/ch-orf-coverage#Coverage.type",
                  "text": "Krankenkasse (nach KVG)",
                  "type": "group",
                  "item": [
                    {
                      "linkId": "coverage.kvg.name",
                      "definition": "http://fhir.ch/ig/ch-orf/StructureDefinition/ch-orf-coverage#Coverage.payor",
                      "text": "Name der Versicherung",
                      "type": "string"
                    },
                    {
                      "linkId": "coverage.kvg.insuranceCardNumber",
                      "definition": "http://fhir.ch/ig/ch-orf/StructureDefinition/ch-orf-coverage#Coverage.identifier",
                      "text": "Kennnummer der Versichertenkarte",
                      "type": "string"
                    }
                  ]
                },
                {
                  "linkId": "coverage.uvg",
                  "definition": "http://fhir.ch/ig/ch-orf/StructureDefinition/ch-orf-coverage#Coverage.type",
                  "text": "Unfallversicherung (nach UVG)",
                  "type": "group",
                  "item": [
                    {
                      "linkId": "coverage.uvg.name",
                      "definition": "http://fhir.ch/ig/ch-orf/StructureDefinition/ch-orf-coverage#Coverage.payor",
                      "text": "Name der Versicherung",
                      "type": "string"
                    },
                    {
                      "linkId": "coverage.uvg.claimNumber",
                      "definition": "http://fhir.ch/ig/ch-orf/StructureDefinition/ch-orf-coverage#Coverage.identifier",
                      "text": "Schadennummer",
                      "type": "string"
                    }
                  ]
                },
                {
                  "linkId": "coverage.vvg",
                  "definition": "http://fhir.ch/ig/ch-orf/StructureDefinition/ch-orf-coverage#Coverage.type",
                  "text": "Zusatzversicherung (nach VVG)",
                  "type": "group",
                  "item": [
                    {
                      "linkId": "coverage.vvg.name",
                      "definition": "http://fhir.ch/ig/ch-orf/StructureDefinition/ch-orf-coverage#Coverage.payor",
                      "text": "Name der Versicherung",
                      "type": "string"
                    },
                    {
                      "linkId": "coverage.vvg.insuranceCardNumber",
                      "definition": "http://fhir.ch/ig/ch-orf/StructureDefinition/ch-orf-coverage#Coverage.identifier",
                      "text": "Kennnummer der Versichertenkarte",
                      "type": "string"
                    }
                  ]
                },
                {
                  "linkId": "coverage.iv",
                  "definition": "http://fhir.ch/ig/ch-orf/StructureDefinition/ch-orf-coverage#Coverage.type",
                  "text": "Invalidenversicherung (IV)",
                  "type": "group",
                  "item": [
                    {
                      "linkId": "coverage.iv.verfuegungsnummer",
                      "definition": "http://fhir.ch/ig/ch-orf/StructureDefinition/ch-orf-coverage#Coverage.identifier",
                      "text": "IV-Verfügungsnummer",
                      "type": "string"
                    }
                  ]
                },
                {
                  "linkId": "coverage.mv",
                  "definition": "http://fhir.ch/ig/ch-orf/StructureDefinition/ch-orf-coverage#Coverage.type",
                  "text": "Militärversicherung (MV)",
                  "type": "group",
                  "item": [
                    {
                      "linkId": "coverage.mv.versichertennummer",
                      "definition": "http://fhir.ch/ig/ch-orf/StructureDefinition/ch-orf-coverage#Coverage.identifier",
                      "text": "MV-Versichertennummer",
                      "type": "string"
                    }
                  ]
                },
                {
                  "linkId": "coverage.self",
                  "definition": "http://fhir.ch/ig/ch-orf/StructureDefinition/ch-orf-coverage#Coverage.type",
                  "text": "Selbstzahler",
                  "type": "group",
                  "item": [
                    {
                      "linkId": "coverage.self.familyName",
                      "definition": "http://fhir.ch/ig/ch-orf/StructureDefinition/ch-orf-coverage#Coverage.payor",
                      "text": "Name",
                      "type": "string"
                    },
                    {
                      "linkId": "coverage.self.givenName",
                      "definition": "http://fhir.ch/ig/ch-orf/StructureDefinition/ch-orf-coverage#Coverage.payor",
                      "text": "Vorname",
                      "type": "string"
                    }
                  ]
                },
                {
                  "linkId": "coverage.other",
                  "definition": "http://fhir.ch/ig/ch-orf/StructureDefinition/ch-orf-coverage#Coverage.type",
                  "text": "Anderer Kostenträger",
                  "type": "group",
                  "item": [
                    {
                      "linkId": "coverage.other.name",
                      "definition": "http://fhir.ch/ig/ch-orf/StructureDefinition/ch-orf-coverage#Coverage.payor",
                      "text": "Name des Kostenträgers",
                      "type": "string"
                    },
                    {
                      "linkId": "coverage.other.id",
                      "definition": "http://fhir.ch/ig/ch-orf/StructureDefinition/ch-orf-coverage#Coverage.identifier",
                      "text": "Beliebige ID",
                      "type": "string"
                    },
                    {
                      "linkId": "coverage.other.id.note",
                      "definition": "http://fhir.ch/ig/ch-orf/StructureDefinition/ch-orf-coverage#Coverage.identifier.type.text",
                      "text": "Bemerkung zur ID",
                      "type": "string"
                    }
                  ]
                }
              ]
            },
            {
              "linkId": "sender",
              "text": "Absender",
              "type": "group",
              "required": true,
              "item": [
                {
                  "linkId": "sender.author",
                  "definition": "http://fhir.ch/ig/ch-rad-order/StructureDefinition/ch-rad-order-composition#Composition.author",
                  "text": "Verantwortlicher",
                  "type": "group",
                  "required": true,
                  "item": [
                    {
                      "linkId": "sender.author.practitioner",
                      "definition": "http://fhir.ch/ig/ch-core/StructureDefinition/ch-core-practitionerrole#PractitionerRole.practitioner",
                      "text": "Verantwortliche Person",
                      "type": "group",
                      "required": true,
                      "item": [
                        {
                          "linkId": "sender.author.practitioner.title",
                          "definition": "http://fhir.ch/ig/ch-core/StructureDefinition/ch-core-practitioner#Practitioner.name.prefix",
                          "text": "Titel",
                          "type": "string"
                        },
                        {
                          "linkId": "sender.author.practitioner.familyName",
                          "definition": "http://fhir.ch/ig/ch-core/StructureDefinition/ch-core-practitioner#Practitioner.name.family",
                          "text": "Name",
                          "type": "string",
                          "required": true
                        },
                        {
                          "linkId": "sender.author.practitioner.givenName",
                          "definition": "http://fhir.ch/ig/ch-core/StructureDefinition/ch-core-practitioner#Practitioner.name.given",
                          "text": "Vorname",
                          "type": "string",
                          "required": true
                        },
                        {
                          "linkId": "sender.author.practitioner.gln",
                          "definition": "http://fhir.ch/ig/ch-core/StructureDefinition/ch-core-practitioner#Practitioner.identifier:GLN.value",
                          "text": "GLN",
                          "type": "string"
                        },
                        {
                          "linkId": "sender.author.practitioner.phone",
                          "definition": "http://fhir.ch/ig/ch-core/StructureDefinition/ch-core-practitioner#Practitioner.telecom.value",
                          "text": "Telefon",
                          "type": "string"
                        },
                        {
                          "linkId": "sender.author.practitioner.email",
                          "definition": "http://fhir.ch/ig/ch-core/StructureDefinition/ch-core-practitioner#Practitioner.telecom.value",
                          "text": "E-Mail",
                          "type": "string"
                        }
                      ]
                    },
                    {
                      "linkId": "sender.author.organization",
                      "definition": "http://fhir.ch/ig/ch-core/StructureDefinition/ch-core-practitionerrole#PractitionerRole.organization",
                      "text": "Verantwortliche Organisation",
                      "type": "group",
                      "required": true,
                      "item": [
                        {
                          "linkId": "sender.author.organization.name",
                          "definition": "http://fhir.ch/ig/ch-core/StructureDefinition/ch-core-organization#Organization.name",
                          "text": "Name der Organisation",
                          "type": "string",
                          "required": true
                        },
                        {
                          "linkId": "sender.author.organization.streetAddressLine",
                          "definition": "http://fhir.ch/ig/ch-core/StructureDefinition/ch-core-organization#Organization.address.line",
                          "text": "Strasse, Hausnummer, Postfach etc.",
                          "type": "string",
                          "repeats": true
                        },
                        {
                          "linkId": "sender.author.organization.postalCode",
                          "definition": "http://fhir.ch/ig/ch-core/StructureDefinition/ch-core-organization#Organization.address.postalCode",
                          "text": "PLZ",
                          "type": "string"
                        },
                        {
                          "linkId": "sender.author.organization.city",
                          "definition": "http://fhir.ch/ig/ch-core/StructureDefinition/ch-core-organization#Organization.address.city",
                          "text": "Ort",
                          "type": "string"
                        },
                        {
                          "linkId": "sender.author.organization.country",
                          "definition": "http://fhir.ch/ig/ch-core/StructureDefinition/ch-core-organization#Organization.address.country",
                          "text": "Land",
                          "type": "string"
                        }
                      ]
                    }
                  ]
                },
                {
                  "linkId": "sender.dataenterer",
                  "definition": "http://fhir.ch/ig/ch-rad-order/StructureDefinition/ch-rad-order-composition#Composition.extension:dataEnterer",
                  "text": "Erfasser",
                  "type": "group",
                  "item": [
                    {
                      "linkId": "sender.dataenterer.practitioner",
                      "definition": "http://fhir.ch/ig/ch-core/StructureDefinition/ch-core-practitionerrole#PractitionerRole.practitioner",
                      "text": "Erfassende Person",
                      "type": "group",
                      "item": [
                        {
                          "linkId": "sender.dataenterer.practitioner.familyName",
                          "definition": "http://fhir.ch/ig/ch-core/StructureDefinition/ch-core-practitioner#Practitioner.name.family",
                          "text": "Name",
                          "type": "string"
                        },
                        {
                          "linkId": "sender.dataenterer.practitioner.givenName",
                          "definition": "http://fhir.ch/ig/ch-core/StructureDefinition/ch-core-practitioner#Practitioner.name.given",
                          "text": "Vorname",
                          "type": "string"
                        },
                        {
                          "linkId": "sender.dataenterer.practitioner.phone",
                          "definition": "http://fhir.ch/ig/ch-core/StructureDefinition/ch-core-practitioner#Practitioner.telecom.value",
                          "text": "Telefon",
                          "type": "string"
                        },
                        {
                          "linkId": "sender.dataenterer.practitioner.email",
                          "definition": "http://fhir.ch/ig/ch-core/StructureDefinition/ch-core-practitioner#Practitioner.telecom.value",
                          "text": "E-Mail",
                          "type": "string"
                        }
                      ]
                    }
                  ]
                }
              ]
            },
            {
              "linkId": "receiver",
              "definition": "http://fhir.ch/ig/ch-rad-order/StructureDefinition/ch-rad-order-composition#Composition.extension:receiver",
              "text": "Empfänger",
              "type": "group",
              "item": [
                {
                  "linkId": "receiver.practitioner",
                  "definition": "http://fhir.ch/ig/ch-core/StructureDefinition/ch-core-practitionerrole#PractitionerRole.practitioner",
                  "text": "Empfangende Person",
                  "type": "group",
                  "item": [
                    {
                      "linkId": "receiver.practitioner.title",
                      "definition": "http://fhir.ch/ig/ch-core/StructureDefinition/ch-core-practitioner#Practitioner.name.prefix",
                      "text": "Titel",
                      "type": "string"
                    },
                    {
                      "linkId": "receiver.practitioner.familyName",
                      "definition": "http://fhir.ch/ig/ch-core/StructureDefinition/ch-core-practitioner#Practitioner.name.family",
                      "text": "Name",
                      "type": "string"
                    },
                    {
                      "linkId": "receiver.practitioner.givenName",
                      "definition": "http://fhir.ch/ig/ch-core/StructureDefinition/ch-core-practitioner#Practitioner.name.given",
                      "text": "Vorname",
                      "type": "string"
                    },
                    {
                      "linkId": "receiver.practitioner.gln",
                      "definition": "http://fhir.ch/ig/ch-core/StructureDefinition/ch-core-practitioner#Practitioner.identifier:GLN.value",
                      "text": "GLN",
                      "type": "string"
                    },
                    {
                      "linkId": "receiver.practitioner.phone",
                      "definition": "http://fhir.ch/ig/ch-core/StructureDefinition/ch-core-practitioner#Practitioner.telecom.value",
                      "text": "Telefon",
                      "type": "string"
                    },
                    {
                      "linkId": "receiver.practitioner.email",
                      "definition": "http://fhir.ch/ig/ch-core/StructureDefinition/ch-core-practitioner#Practitioner.telecom.value",
                      "text": "E-Mail",
                      "type": "string"
                    }
                  ]
                },
                {
                  "linkId": "receiver.organization",
                  "definition": "http://fhir.ch/ig/ch-core/StructureDefinition/ch-core-practitionerrole#PractitionerRole.organization",
                  "text": "Empfangende Organisation",
                  "type": "group",
                  "item": [
                    {
                      "linkId": "receiver.organization.name",
                      "definition": "http://fhir.ch/ig/ch-core/StructureDefinition/ch-core-organization#Organization.name",
                      "text": "Name der Organisation",
                      "type": "string"
                    },
                    {
                      "linkId": "receiver.organization.streetAddressLine",
                      "definition": "http://fhir.ch/ig/ch-core/StructureDefinition/ch-core-organization#Organization.address.line",
                      "text": "Strasse, Hausnummer, Postfach etc.",
                      "type": "string",
                      "repeats": true
                    },
                    {
                      "linkId": "receiver.organization.postalCode",
                      "definition": "http://fhir.ch/ig/ch-core/StructureDefinition/ch-core-organization#Organization.address.postalCode",
                      "text": "PLZ",
                      "type": "string"
                    },
                    {
                      "linkId": "receiver.organization.city",
                      "definition": "http://fhir.ch/ig/ch-core/StructureDefinition/ch-core-organization#Organization.address.city",
                      "text": "Ort",
                      "type": "string"
                    },
                    {
                      "linkId": "receiver.organization.country",
                      "definition": "http://fhir.ch/ig/ch-core/StructureDefinition/ch-core-organization#Organization.address.country",
                      "text": "Land",
                      "type": "string"
                    }
                  ]
                }
              ]
            },
            {
              "linkId": "receiverCopies",
              "definition": "http://fhir.ch/ig/ch-rad-order/StructureDefinition/ch-rad-order-composition#Composition.extension:copyReceiver",
              "text": "Kopieempfänger",
              "type": "group",
              "item": [
                {
                  "linkId": "receiverCopy",
                  "text": "Kopieempfangende Organisation oder Person",
                  "type": "group",
                  "repeats": true,
                  "item": [
                    {
                      "linkId": "receiverCopy.organization.name",
                      "definition": "http://fhir.ch/ig/ch-core/StructureDefinition/ch-core-organization#Organization.name",
                      "text": "Name der Organisation",
                      "type": "string"
                    },
                    {
                      "linkId": "receiverCopy.title",
                      "definition": "http://fhir.ch/ig/ch-core/StructureDefinition/ch-core-humanname#HumanName.prefix",
                      "text": "Titel",
                      "type": "string"
                    },
                    {
                      "linkId": "receiverCopy.familyName",
                      "definition": "http://fhir.ch/ig/ch-core/StructureDefinition/ch-core-humanname#HumanName.family",
                      "text": "Name",
                      "type": "string"
                    },
                    {
                      "linkId": "receiverCopy.givenName",
                      "definition": "http://fhir.ch/ig/ch-core/StructureDefinition/ch-core-humanname#HumanName.given",
                      "text": "Vorname",
                      "type": "string"
                    },
                    {
                      "linkId": "receiverCopy.phone",
                      "definition": "http://hl7.org/fhir/StructureDefinition/ContactPoint#ContactPoint.value",
                      "text": "Telefon",
                      "type": "string"
                    },
                    {
                      "linkId": "receiverCopy.email",
                      "definition": "http://hl7.org/fhir/StructureDefinition/ContactPoint#ContactPoint.value",
                      "text": "E-Mail",
                      "type": "string"
                    },
                    {
                      "linkId": "receiverCopy.streetAddressLine",
                      "definition": "http://fhir.ch/ig/ch-core/StructureDefinition/ch-core-address#Address.line",
                      "text": "Strasse, Hausnummer, Postfach etc.",
                      "type": "string",
                      "repeats": true
                    },
                    {
                      "linkId": "receiverCopy.postalCode",
                      "definition": "http://fhir.ch/ig/ch-core/StructureDefinition/ch-core-address#Address.postalCode",
                      "text": "PLZ",
                      "type": "string"
                    },
                    {
                      "linkId": "receiverCopy.city",
                      "definition": "http://fhir.ch/ig/ch-core/StructureDefinition/ch-core-address#Address.city",
                      "text": "Ort",
                      "type": "string"
                    },
                    {
                      "linkId": "receiverCopy.country",
                      "definition": "http://fhir.ch/ig/ch-core/StructureDefinition/ch-core-address#Address.country",
                      "text": "Land",
                      "type": "string"
                    }
                  ]
                }
              ]
            },
            {
              "linkId": "appointment",
              "definition": "http://fhir.ch/ig/ch-orf/StructureDefinition/ch-orf-servicerequest#ServiceRequest.extension:locationAndTime",
              "text": "Ort und Zeit der Durchführung der angeforderten Leistung",
              "type": "group",
              "repeats": true,
              "item": [
                {
                  "linkId": "appointment.location",
                  "definition": "http://fhir.ch/ig/ch-orf/StructureDefinition/ch-orf-appointment#Appointment.participant.actor",
                  "text": "Ort der Durchführung",
                  "type": "group",
                  "required": true,
                  "item": [
                    {
                      "linkId": "appointment.location.name",
                      "definition": "http://fhir.ch/ig/ch-orf/StructureDefinition/ch-orf-location#Location.name",
                      "text": "Name",
                      "type": "string",
                      "required": true
                    },
                    {
                      "linkId": "appointment.location.phone",
                      "definition": "http://fhir.ch/ig/ch-orf/StructureDefinition/ch-orf-location#Location.telecom.value",
                      "text": "Telefon",
                      "type": "string"
                    },
                    {
                      "linkId": "appointment.location.email",
                      "definition": "http://fhir.ch/ig/ch-orf/StructureDefinition/ch-orf-location#Location.telecom.value",
                      "text": "E-Mail",
                      "type": "string"
                    },
                    {
                      "linkId": "appointment.location.streetAddressLine",
                      "definition": "http://fhir.ch/ig/ch-orf/StructureDefinition/ch-orf-location#Location.address.line",
                      "text": "Strasse, Hausnummer, Postfach etc.",
                      "type": "string",
                      "repeats": true
                    },
                    {
                      "linkId": "appointment.location.postalCode",
                      "definition": "http://fhir.ch/ig/ch-orf/StructureDefinition/ch-orf-location#Location.address.postalCode",
                      "text": "PLZ",
                      "type": "string"
                    },
                    {
                      "linkId": "appointment.location.city",
                      "definition": "http://fhir.ch/ig/ch-orf/StructureDefinition/ch-orf-location#Location.address.city",
                      "text": "Ort",
                      "type": "string"
                    },
                    {
                      "linkId": "appointment.location.country",
                      "definition": "http://fhir.ch/ig/ch-orf/StructureDefinition/ch-orf-location#Location.address.country",
                      "text": "Land",
                      "type": "string"
                    }
                  ]
                },
                {
                  "linkId": "appointment.requestedPeriod",
                  "definition": "http://fhir.ch/ig/ch-orf/StructureDefinition/ch-orf-appointment#Appointment.requestedPeriod",
                  "text": "Datum und Zeit, wann der Termin bevorzugt geplant werden soll",
                  "type": "group",
                  "item": [
                    {
                      "linkId": "appointment.requestedPeriod.start",
                      "definition": "http://fhir.ch/ig/ch-orf/StructureDefinition/ch-orf-appointment#Appointment.requestedPeriod.start",
                      "text": "Von",
                      "type": "dateTime"
                    },
                    {
                      "linkId": "appointment.requestedPeriod.end",
                      "definition": "http://fhir.ch/ig/ch-orf/StructureDefinition/ch-orf-appointment#Appointment.requestedPeriod.end",
                      "text": "Bis",
                      "type": "dateTime"
                    }
                  ]
                },
                {
                  "linkId": "appointment.status",
                  "definition": "http://fhir.ch/ig/ch-orf/StructureDefinition/ch-orf-appointment#Appointment.status",
                  "text": "Status",
                  "type": "choice",
                  "required": true,
                  "answerOption": [
                    {
                      "valueCoding": {
                        "system": "http://hl7.org/fhir/appointmentstatus",
                        "code": "proposed",
                        "display": "Wunsch des Patienten (vorgeschlagen)"
                      },
                      "initialSelected": true
                    },
                    {
                      "valueCoding": {
                        "system": "http://hl7.org/fhir/appointmentstatus",
                        "code": "pending",
                        "display": "Vom Patienten bestätigt, aber vom Leistungserbringer noch nicht (ausstehend)"
                      }
                    },
                    {
                      "valueCoding": {
                        "system": "http://hl7.org/fhir/appointmentstatus",
                        "code": "booked",
                        "display": "Vom Patienten und Leistungserbringer bestätigt (gebucht)"
                      }
                    }
                  ]
                },
                {
                  "linkId": "appointment.patientInstruction",
                  "definition": "http://fhir.ch/ig/ch-orf/StructureDefinition/ch-orf-appointment#Appointment.patientInstruction",
                  "text": "Patienteninformation für diesen Termin",
                  "type": "string"
                }
              ]
            },
            {
              "linkId": "requestedService",
              "text": "Angeforderte Leistung",
              "type": "group",
              "required": true,
              "item": [
                {
                  "linkId": "requestedService.service",
                  "definition": "http://fhir.ch/ig/ch-rad-order/StructureDefinition/ch-rad-order-servicerequest#ServiceRequest.category.coding",
                  "text": "Leistung",
                  "type": "choice",
                  "required": true,
                  "answerValueSet": "http://fhir.ch/ig/ch-rad-order/ValueSet/ch-rad-order-requested-service"
                }
              ]
            },
            {
              "linkId": "reason",
              "text": "Klinische Fragestellung",
              "type": "group",
              "item": [
                {
                  "linkId": "reason.question",
                  "definition": "http://fhir.ch/ig/ch-rad-order/StructureDefinition/ch-rad-order-servicerequest#ServiceRequest.reasonCode.text",
                  "text": "Fragestellung",
                  "type": "string",
                  "repeats": true
                }
              ]
            },
            {
              "linkId": "imagingService",
              "text": "Bildgebendes Verfahren",
              "type": "group",
              "item": [
                {
                  "linkId": "imagingService.type",
                  "definition": "http://fhir.ch/ig/ch-rad-order/StructureDefinition/ch-rad-order-servicerequest#ServiceRequest.code.coding:RdlxModType",
                  "text": "Art",
                  "type": "choice",
                  "answerValueSet": "http://fhir.ch/ig/ch-rad-order/ValueSet/ch-rad-order-modality-type"
                }
              ]
            },
            {
              "linkId": "orderDetail",
              "text": "Weitere Angaben zur Bildgebung",
              "type": "group",
              "item": [
                {
                  "linkId": "orderDetail.imagingRegion",
                  "definition": "http://fhir.ch/ig/ch-rad-order/StructureDefinition/ch-rad-order-servicerequest#ServiceRequest.orderDetail:imagingRegion",
                  "text": "Region",
                  "type": "choice",
                  "repeats": true,
                  "answerValueSet": "http://fhir.ch/ig/ch-rad-order/ValueSet/ch-rad-order-imaging-region"
                },
                {
                  "linkId": "orderDetail.imagingFocus",
                  "definition": "http://fhir.ch/ig/ch-rad-order/StructureDefinition/ch-rad-order-servicerequest#ServiceRequest.bodySite",
                  "text": "Fokus",
                  "type": "choice",
                  "repeats": true,
                  "answerValueSet": "http://fhir.ch/ig/ch-rad-order/ValueSet/ch-rad-order-imaging-focus"
                },
                {
                  "linkId": "orderDetail.laterality",
                  "definition": "http://fhir.ch/ig/ch-rad-order/StructureDefinition/ch-rad-order-servicerequest#ServiceRequest.orderDetail:laterality",
                  "text": "Seitenangabe",
                  "type": "choice",
                  "answerValueSet": "http://fhir.ch/ig/ch-rad-order/ValueSet/ch-rad-order-laterality"
                },
                {
                  "linkId": "orderDetail.viewType",
                  "definition": "http://fhir.ch/ig/ch-rad-order/StructureDefinition/ch-rad-order-servicerequest#ServiceRequest.orderDetail:viewType",
                  "text": "Ansicht",
                  "type": "choice",
                  "repeats": true,
                  "answerValueSet": "http://fhir.ch/ig/ch-rad-order/ValueSet/ch-rad-order-view-type"
                },
                {
                  "linkId": "orderDetail.maneuverType",
                  "definition": "http://fhir.ch/ig/ch-rad-order/StructureDefinition/ch-rad-order-servicerequest#ServiceRequest.orderDetail:maneuverType",
                  "text": "Manöver",
                  "type": "choice",
                  "repeats": true,
                  "answerValueSet": "http://fhir.ch/ig/ch-rad-order/ValueSet/ch-rad-order-maneuver-type"
                },
                {
                  "linkId": "orderDetail.guidanceForAction",
                  "definition": "http://fhir.ch/ig/ch-rad-order/StructureDefinition/ch-rad-order-servicerequest#ServiceRequest.orderDetail:guidanceForAction",
                  "text": "Handlungsanleitung",
                  "type": "choice",
                  "enableWhen": [
                    {
                      "question": "requestedService.service",
                      "operator": "=",
                      "answerCoding": {
                        "system": "http://fhir.ch/ig/ch-rad-order/CodeSystem/ch-rad-order-requested-service",
                        "code": "RadIntervention"
                      }
                    },
                    {
                      "question": "requestedService.service",
                      "operator": "=",
                      "answerCoding": {
                        "system": "http://fhir.ch/ig/ch-rad-order/CodeSystem/ch-rad-order-requested-service",
                        "code": "ImagingRequestWithIntervention"
                      }
                    }
                  ],
                  "enableBehavior": "any",
                  "repeats": true,
                  "answerValueSet": "http://fhir.ch/ig/ch-rad-order/ValueSet/ch-rad-order-guidance-for-action"
                }
              ]
            },
            {
              "linkId": "desiredRadiologist",
              "definition": "http://fhir.ch/ig/ch-rad-order/StructureDefinition/ch-rad-order-servicerequest#ServiceRequest.performer",
              "text": "Gewünschter Radiologe für die Befundung / für die Intervention",
              "type": "group",
              "item": [
                {
                  "linkId": "desiredRadiologist.familyName",
                  "definition": "http://fhir.ch/ig/ch-core/StructureDefinition/ch-core-practitioner#Practitioner.name.family",
                  "text": "Name",
                  "type": "string"
                },
                {
                  "linkId": "desiredRadiologist.givenName",
                  "definition": "http://fhir.ch/ig/ch-core/StructureDefinition/ch-core-practitioner#Practitioner.name.given",
                  "text": "Vorname",
                  "type": "string"
                }
              ]
            },
            {
              "linkId": "diagnosisList",
              "text": "Diagnosen und Befunde",
              "type": "group",
              "item": [
                {
                  "linkId": "diagnosisList.primaryDiagnosis",
                  "definition": "http://fhir.ch/ig/ch-rad-order/StructureDefinition/ch-rad-order-servicerequest#ServiceRequest.reasonReference",
                  "text": "Hauptdiagnose",
                  "type": "string",
                  "repeats": true
                },
                {
                  "linkId": "diagnosisList.secondaryDiagnosis",
                  "definition": "http://fhir.ch/ig/ch-rad-order/StructureDefinition/ch-rad-order-servicerequest#ServiceRequest.supportingInfo:diagnosis",
                  "text": "Nebendiagnose",
                  "type": "string",
                  "repeats": true
                },
                {
                  "linkId": "diagnosisList.bodyHeight",
                  "definition": "http://fhir.ch/ig/ch-rad-order/StructureDefinition/ch-rad-order-servicerequest#ServiceRequest.supportingInfo:bodyHeight",
                  "text": "Grösse (cm)",
                  "type": "quantity",
                  "repeats": false
                },
                {
                  "linkId": "diagnosisList.bodyWeight",
                  "definition": "http://fhir.ch/ig/ch-rad-order/StructureDefinition/ch-rad-order-servicerequest#ServiceRequest.supportingInfo:bodyWeight",
                  "text": "Gewicht (kg)",
                  "type": "quantity",
                  "repeats": false
                }
              ]
            },
            {
              "linkId": "caveat",
              "definition": "http://fhir.ch/ig/ch-rad-order/StructureDefinition/ch-rad-order-servicerequest#ServiceRequest.supportingInfo:caveats",
              "text": "Caveats",
              "type": "group",
              "item": [
                {
                  "linkId": "caveat.bloodCoagulation",
                  "definition": "http://fhir.ch/ig/ch-rad-order/StructureDefinition/ch-rad-order-caveat-condition#Condition.code",
                  "text": "Beinträchtigte Blutgerinnung",
                  "type": "boolean",
                  "item": [
                    {
                      "linkId": "caveat.bloodCoagulation.INR",
                      "definition": "http://fhir.ch/ig/ch-rad-order/StructureDefinition/ch-rad-order-caveat-condition#Condition.evidence.detail",
                      "text": "INR",
                      "type": "group",
                      "enableWhen": [
                        {
                          "question": "caveat.bloodCoagulation",
                          "operator": "=",
                          "answerBoolean": true
                        }
                      ],
                      "item": [
                        {
                          "linkId": "caveat.bloodCoagulation.INR.quantity",
                          "definition": "http://fhir.ch/ig/ch-rad-order/StructureDefinition/ch-rad-order-INR-observation#Observation.valueQuantity",
                          "text": "Wert (INR)",
                          "type": "quantity"
                        },
                        {
                          "linkId": "caveat.bloodCoagulation.INR.dateTime",
                          "definition": "http://fhir.ch/ig/ch-rad-order/StructureDefinition/ch-rad-order-INR-observation#Observation.effectiveDateTime",
                          "text": "Zeitpunkt der Bestimmung",
                          "type": "dateTime"
                        }
                      ]
                    },
                    {
                      "linkId": "caveat.bloodCoagulation.platelets",
                      "definition": "http://fhir.ch/ig/ch-rad-order/StructureDefinition/ch-rad-order-caveat-condition#Condition.evidence.detail",
                      "text": "Thrombozyten",
                      "type": "group",
                      "enableWhen": [
                        {
                          "question": "caveat.bloodCoagulation",
                          "operator": "=",
                          "answerBoolean": true
                        }
                      ],
                      "item": [
                        {
                          "linkId": "caveat.bloodCoagulation.platelets.quantity",
                          "definition": "http://fhir.ch/ig/ch-rad-order/StructureDefinition/ch-rad-order-platelets-observation#Observation.valueQuantity",
                          "text": "Wert (10^3/µl)",
                          "type": "quantity"
                        },
                        {
                          "linkId": "caveat.bloodCoagulation.platelets.dateTime",
                          "definition": "http://fhir.ch/ig/ch-rad-order/StructureDefinition/ch-rad-order-platelets-observation#Observation.effectiveDateTime",
                          "text": "Zeitpunkt der Bestimmung",
                          "type": "dateTime"
                        }
                      ]
                    }
                  ]
                },
                {
                  "linkId": "caveat.renalInsufficiency",
                  "definition": "http://fhir.ch/ig/ch-rad-order/StructureDefinition/ch-rad-order-caveat-condition#Condition.code",
                  "text": "Niereninsuffizienz",
                  "type": "boolean",
                  "item": [
                    {
                      "linkId": "caveat.renalInsufficiency.creatinineClearance",
                      "definition": "http://fhir.ch/ig/ch-rad-order/StructureDefinition/ch-rad-order-caveat-condition#Condition.evidence.detail",
                      "text": "Creatinin-Clearance",
                      "type": "group",
                      "enableWhen": [
                        {
                          "question": "caveat.renalInsufficiency",
                          "operator": "=",
                          "answerBoolean": true
                        }
                      ],
                      "item": [
                        {
                          "linkId": "caveat.renalInsufficiency.creatinineClearance.quantity",
                          "definition": "http://fhir.ch/ig/ch-rad-order/StructureDefinition/ch-rad-order-creatinineclearance-observation#Observation.valueQuantity",
                          "text": "Wert (ml/min)",
                          "type": "quantity"
                        },
                        {
                          "linkId": "caveat.renalInsufficiency.creatinineClearance.dateTime",
                          "definition": "http://fhir.ch/ig/ch-rad-order/StructureDefinition/ch-rad-order-creatinineclearance-observation#Observation.effectiveDateTime",
                          "text": "Zeitpunkt der Bestimmung",
                          "type": "dateTime"
                        }
                      ]
                    },
                    {
                      "linkId": "caveat.renalInsufficiency.creatinine",
                      "definition": "http://fhir.ch/ig/ch-rad-order/StructureDefinition/ch-rad-order-caveat-condition#Condition.evidence.detail",
                      "text": "Creatinin",
                      "type": "group",
                      "enableWhen": [
                        {
                          "question": "caveat.renalInsufficiency",
                          "operator": "=",
                          "answerBoolean": true
                        }
                      ],
                      "item": [
                        {
                          "linkId": "caveat.renalInsufficiency.creatinine.quantity",
                          "definition": "http://fhir.ch/ig/ch-rad-order/StructureDefinition/ch-rad-order-creatinine-observation#Observation.valueQuantity",
                          "text": "Wert (µmol/l)",
                          "type": "quantity"
                        },
                        {
                          "linkId": "caveat.renalInsufficiency.creatinine.dateTime",
                          "definition": "http://fhir.ch/ig/ch-rad-order/StructureDefinition/ch-rad-order-creatinine-observation#Observation.effectiveDateTime",
                          "text": "Zeitpunkt der Bestimmung",
                          "type": "dateTime"
                        }
                      ]
                    }
                  ]
                },
                {
                  "linkId": "caveat.claustrophobia",
                  "definition": "http://fhir.ch/ig/ch-rad-order/StructureDefinition/ch-rad-order-caveat-condition#Condition.code",
                  "text": "Klaustrophobie",
                  "type": "boolean"
                },
                {
                  "linkId": "caveat.bodyPiercing",
                  "definition": "http://fhir.ch/ig/ch-rad-order/StructureDefinition/ch-rad-order-caveat-condition#Condition.code",
                  "text": "Körperpiercing",
                  "type": "boolean"
                },
                {
                  "linkId": "caveat.device",
                  "definition": "http://fhir.ch/ig/ch-rad-order/StructureDefinition/ch-rad-order-caveat-condition#Condition.code",
                  "text": "Device (Herzschrittmacher, Herzklappenersatz, Insulinpumpe etc.)",
                  "type": "choice",
                  "repeats": true,
                  "answerValueSet": "http://fhir.ch/ig/ch-rad-order/ValueSet/ch-rad-order-caveat-device"
                },
                {
                  "linkId": "caveat.hyperthyroidism",
                  "definition": "http://fhir.ch/ig/ch-rad-order/StructureDefinition/ch-rad-order-caveat-condition#Condition.code",
                  "text": "Hyperthyreose",
                  "type": "boolean"
                },
                {
                  "linkId": "caveat.diabetes",
                  "definition": "http://fhir.ch/ig/ch-rad-order/StructureDefinition/ch-rad-order-caveat-condition#Condition.code",
                  "text": "Diabetes mellitus",
                  "type": "boolean"
                },
                {
                  "linkId": "caveat.gravida",
                  "definition": "http://fhir.ch/ig/ch-rad-order/StructureDefinition/ch-rad-order-caveat-condition#Condition.code",
                  "text": "Schwangerschaft",
                  "type": "boolean"
                },
                {
                  "linkId": "caveat.contrastMediaAllergy",
                  "definition": "http://fhir.ch/ig/ch-rad-order/StructureDefinition/ch-rad-order-caveat-condition#Condition.code",
                  "text": "Kontrastmittelallergie",
                  "type": "boolean"
                },
                {
                  "linkId": "caveat.drugPrescription",
                  "definition": "http://fhir.ch/ig/ch-rad-order/StructureDefinition/ch-rad-order-caveat-condition#Condition.code",
                  "text": "Relevante Medikamente, z.B. Metformin",
                  "type": "choice",
                  "repeats": true,
                  "answerValueSet": "http://fhir.ch/ig/ch-rad-order/ValueSet/ch-rad-order-caveat-substance"
                }
              ]
            },
            {
              "linkId": "previousResults",
              "definition": "http://fhir.ch/ig/ch-rad-order/StructureDefinition/ch-rad-order-servicerequest#ServiceRequest.supportingInfo:previousImagingResults",
              "text": "Vorherige Untersuchungsresultate",
              "type": "group",
              "item": [
                {
                  "linkId": "previousResults.attachment",
                  "text": "Anhang",
                  "type": "group",
                  "repeats": true,
                  "item": [
                    {
                      "linkId": "previousResults.attachtment.title",
                      "definition": "http://fhir.ch/ig/ch-rad-order/StructureDefinition/ch-rad-order-media#Media.content.title",
                      "text": "Dateiname und -endung der angehängten Datei (z.B. \"shoulder_re_F_Muster_12021988.pdf\")",
                      "type": "string"
                    },
                    {
                      "linkId": "previousResults.attachment.data",
                      "definition": "http://fhir.ch/ig/ch-rad-order/StructureDefinition/ch-rad-order-media#Media.content.data",
                      "text": "Daten",
                      "type": "string"
                    }
                  ]
                }
              ]
            },
            {
              "linkId": "note",
              "text": "Bemerkungen",
              "type": "group",
              "repeats": true,
              "item": [
                {
                  "linkId": "note.text",
                  "definition": "http://fhir.ch/ig/ch-rad-order/StructureDefinition/ch-rad-order-servicerequest#ServiceRequest.note.text",
                  "text": "Kommentar",
                  "type": "string",
                  "required": true
                }
              ]
            }
          ]
        }
      },
      {
        "fullUrl": "urn:uuid:88f73a7b-5893-4f2e-84dd-a3af9285f639",
        "resource": {
          "resourceType": "PractitionerRole",
          "text": {
            "status": "generated",
            "div": "<div xmlns=\"http://www.w3.org/1999/xhtml\"><p><b>Generated Narrative</b></p><p><b>organization</b>: <a href=\"#urnuuid62ea2b57-745c-4c0d-8d32-5b1ece03da98\">See above (Organization/null)</a></p></div>"
          },
          "organization": {
            "reference": "urn:uuid:62ea2b57-745c-4c0d-8d32-5b1ece03da98"
          }
        }
      },
      {
        "fullUrl": "urn:uuid:62ea2b57-745c-4c0d-8d32-5b1ece03da98",
        "resource": {
          "resourceType": "Organization",
          "text": {
            "status": "generated",
            "div": "<div xmlns=\"http://www.w3.org/1999/xhtml\"><p><b>Generated Narrative</b></p><p><b>name</b>: Klinik Happy Hospital</p><p><b>address</b>: Seestrasse 133 Haus C Zürich 8000 Schweiz </p></div>"
          },
          "name": "Klinik Happy Hospital",
          "address": [
            {
              "line": [
                "Seestrasse 133",
                "Haus C"
              ],
              "city": "Zürich",
              "postalCode": "8000",
              "country": "Schweiz"
            }
          ]
        }
      },
      {
        "fullUrl": "urn:uuid:e1224598-58f9-457f-b817-e3493535adc8",
        "resource": {
          "resourceType": "Coverage",
          "text": {
            "status": "generated",
            "div": "<div xmlns=\"http://www.w3.org/1999/xhtml\"><p><b>Generated Narrative</b></p><p><b>identifier</b>: Insurance Card Number: 80756015090002647590</p><p><b>status</b>: active</p><p><b>type</b>: <span title=\"Codes: {http://fhir.ch/ig/ch-orf/CodeSystem/ch-orf-cs-coveragetype KVG}\">According to KVG</span></p><p><b>beneficiary</b>: <a href=\"#urnuuida4b1e8e7-a6fd-42bd-b2fb-124fd5aa34e9\">See above (Patient/null)</a></p><p><b>payor</b>: <a name=\"org\"> </a></p><blockquote><p><b>name</b>: Sanitas</p></blockquote></div>"
          },
          "contained": [
            {
              "resourceType": "Organization",
              "id": "org",
              "name": "Sanitas"
            }
          ],
          "identifier": [
            {
              "type": {
                "coding": [
                  {
                    "system": "http://fhir.ch/ig/ch-orf/CodeSystem/ch-orf-cs-coverageidentifiertype",
                    "code": "VeKa"
                  }
                ]
              },
              "value": "80756015090002647590"
            }
          ],
          "status": "active",
          "type": {
            "coding": [
              {
                "system": "http://fhir.ch/ig/ch-orf/CodeSystem/ch-orf-cs-coveragetype",
                "code": "KVG"
              }
            ]
          },
          "beneficiary": {
            "reference": "urn:uuid:a4b1e8e7-a6fd-42bd-b2fb-124fd5aa34e9"
          },
          "payor": [
            {
              "reference": "#org"
            }
          ]
        }
      },
      {
        "fullUrl": "urn:uuid:2c55b441-0e82-498c-9a80-c12dce907c1f",
        "resource": {
          "resourceType": "PractitionerRole",
          "text": {
            "status": "generated",
            "div": "<div xmlns=\"http://www.w3.org/1999/xhtml\"><p><b>Generated Narrative</b></p><p><b>practitioner</b>: <a href=\"#urnuuid55fa5930-e1fc-4af0-a851-96cb9cecc561\">See above (Practitioner/null)</a></p><p><b>organization</b>: <a href=\"#urnuuidd830a0d9-46ac-4394-890d-013017420dc2\">See above (Organization/null)</a></p></div>"
          },
          "practitioner": {
            "reference": "urn:uuid:55fa5930-e1fc-4af0-a851-96cb9cecc561"
          },
          "organization": {
            "reference": "urn:uuid:d830a0d9-46ac-4394-890d-013017420dc2"
          }
        }
      },
      {
        "fullUrl": "urn:uuid:55fa5930-e1fc-4af0-a851-96cb9cecc561",
        "resource": {
          "resourceType": "Practitioner",
          "text": {
            "status": "generated",
            "div": "<div xmlns=\"http://www.w3.org/1999/xhtml\"><p><b>Generated Narrative</b></p><p><b>identifier</b>: id: 7601000034321</p><p><b>name</b>: Ottilie Rderplacer </p><p><b>telecom</b>: <a href=\"tel:+41443332211\">+41 44 333 22 11</a>, <a href=\"mailto:o.rderplacer@happydoctors.ch\">o.rderplacer@happydoctors.ch</a></p></div>"
          },
          "identifier": [
            {
              "system": "urn:oid:2.51.1.3",
              "value": "7601000034321"
            }
          ],
          "name": [
            {
              "family": "Rderplacer",
              "given": [
                "Ottilie"
              ],
              "prefix": [
                "Dr. med."
              ],
              "_prefix": [
                {
                  "extension": [
                    {
                      "url": "http://hl7.org/fhir/StructureDefinition/iso21090-EN-qualifier",
                      "valueCode": "AC"
                    }
                  ]
                }
              ]
            }
          ],
          "telecom": [
            {
              "system": "phone",
              "value": "+41 44 333 22 11"
            },
            {
              "system": "email",
              "value": "o.rderplacer@happydoctors.ch"
            }
          ]
        }
      },
      {
        "fullUrl": "urn:uuid:d830a0d9-46ac-4394-890d-013017420dc2",
        "resource": {
          "resourceType": "Organization",
          "text": {
            "status": "generated",
            "div": "<div xmlns=\"http://www.w3.org/1999/xhtml\"><p><b>Generated Narrative</b></p><p><b>name</b>: Praxis Happy Doctors</p><p><b>address</b>: Kantonsstrasse 14 Postfach 14 Zürich 8000 Schweiz </p></div>"
          },
          "name": "Praxis Happy Doctors",
          "address": [
            {
              "line": [
                "Kantonsstrasse 14",
                "Postfach 14"
              ],
              "city": "Zürich",
              "postalCode": "8000",
              "country": "Schweiz"
            }
          ]
        }
      },
      {
        "fullUrl": "urn:uuid:06b1325a-1332-41f1-9cdb-39dd54a4fc25",
        "resource": {
          "resourceType": "PractitionerRole",
          "text": {
            "status": "generated",
            "div": "<div xmlns=\"http://www.w3.org/1999/xhtml\"><p><b>Generated Narrative</b></p><p><b>practitioner</b>: <a href=\"#urnuuidbc0a5031-a3fb-43fb-9547-4dfd0f5f29a6\">See above (Practitioner/null)</a></p><p><b>organization</b>: <a href=\"#urnuuidd830a0d9-46ac-4394-890d-013017420dc2\">See above (Organization/null)</a></p></div>"
          },
          "practitioner": {
            "reference": "urn:uuid:bc0a5031-a3fb-43fb-9547-4dfd0f5f29a6"
          },
          "organization": {
            "reference": "urn:uuid:d830a0d9-46ac-4394-890d-013017420dc2"
          }
        }
      },
      {
        "fullUrl": "urn:uuid:bc0a5031-a3fb-43fb-9547-4dfd0f5f29a6",
        "resource": {
          "resourceType": "Practitioner",
          "text": {
            "status": "generated",
            "div": "<div xmlns=\"http://www.w3.org/1999/xhtml\"><p><b>Generated Narrative</b></p><p><b>name</b>: Doris Ataenterer </p><p><b>telecom</b>: <a href=\"tel:+41443332211\">+41 44 333 22 11</a>, <a href=\"mailto:d.ataenterer@happydoctors.ch\">d.ataenterer@happydoctors.ch</a></p></div>"
          },
          "name": [
            {
              "family": "Ataenterer",
              "given": [
                "Doris"
              ]
            }
          ],
          "telecom": [
            {
              "system": "phone",
              "value": "+41 44 333 22 11"
            },
            {
              "system": "email",
              "value": "d.ataenterer@happydoctors.ch"
            }
          ]
        }
      },
      {
        "fullUrl": "urn:uuid:21338b4f-0089-4313-8502-1396b1b94799",
        "resource": {
          "resourceType": "Patient",
          "text": {
            "status": "generated",
            "div": "<div xmlns=\"http://www.w3.org/1999/xhtml\"><p><b>Generated Narrative</b></p><p><b>name</b>: Susanna Ufferer </p><p><b>telecom</b>: <a href=\"tel:+41799797979\">+41 79 979 79 79</a>, <a href=\"mailto:susanna@ufferer.ch\">susanna@ufferer.ch</a></p><p><b>address</b>: Musterweg 6a Zürich 8000 Schweiz </p></div>"
          },
          "name": [
            {
              "family": "Ufferer",
              "given": [
                "Susanna"
              ]
            }
          ],
          "telecom": [
            {
              "system": "phone",
              "value": "+41 79 979 79 79"
            },
            {
              "system": "email",
              "value": "susanna@ufferer.ch"
            }
          ],
          "address": [
            {
              "line": [
                "Musterweg",
                "6a"
              ],
              "city": "Zürich",
              "postalCode": "8000",
              "country": "Schweiz"
            }
          ]
        }
      },
      {
        "fullUrl": "urn:uuid:0f5c70f5-3159-46d0-88fc-957ea0ebb119",
        "resource": {
          "resourceType": "Appointment",
          "text": {
            "status": "generated",
            "div": "<div xmlns=\"http://www.w3.org/1999/xhtml\"><p><b>Generated Narrative</b></p><p><b>status</b>: proposed</p><p><b>patientInstruction</b>: Wunschtermin der Patientin</p><h3>Participants</h3><table class=\"grid\"><tr><td>-</td><td><b>Actor</b></td><td><b>Status</b></td></tr><tr><td>*</td><td><a href=\"#urnuuidb23e1134-a8bc-4f17-ac63-1343ba81620c\">See above (Location/null)</a></td><td>tentative</td></tr></table><p><b>requestedPeriod</b>: Apr 1, 2019, 3:00:00 PM --&gt; Apr 1, 2019, 3:30:00 PM</p></div>"
          },
          "status": "proposed",
          "patientInstruction": "Wunschtermin der Patientin",
          "participant": [
            {
              "actor": {
                "reference": "urn:uuid:b23e1134-a8bc-4f17-ac63-1343ba81620c"
              },
              "status": "tentative"
            }
          ],
          "requestedPeriod": [
            {
              "start": "2019-04-01T15:00:00.000+00:00",
              "end": "2019-04-01T15:30:00.000+00:00"
            }
          ]
        }
      },
      {
        "fullUrl": "urn:uuid:b23e1134-a8bc-4f17-ac63-1343ba81620c",
        "resource": {
          "resourceType": "Location",
          "text": {
            "status": "generated",
            "div": "<div xmlns=\"http://www.w3.org/1999/xhtml\"><p><b>Generated Narrative</b></p><p><b>name</b>: Radiologie</p><p><b>telecom</b>: <a href=\"tel:+41444126556\">+41 44 412 65 56</a></p><p><b>address</b>: Zürich 8000 Schweiz </p></div>"
          },
          "name": "Radiologie",
          "telecom": [
            {
              "system": "phone",
              "value": "+41 44 412 65 56"
            }
          ],
          "address": {
            "city": "Zürich",
            "postalCode": "8000",
            "country": "Schweiz"
          }
        }
      },
      {
        "fullUrl": "urn:uuid:8b9ea9dc-c224-4c35-8211-9150fee3ca75",
        "resource": {
          "resourceType": "Condition",
          "text": {
            "status": "generated",
            "div": "<div xmlns=\"http://www.w3.org/1999/xhtml\"><p><b>Generated Narrative</b></p><p><b>category</b>: <span title=\"Codes: {http://terminology.hl7.org/CodeSystem/condition-category problem-list-item}\">Problem List Item</span></p><p><b>code</b>: <span title=\"Codes: \">Secondary Diagnosis 1</span></p><p><b>subject</b>: <a href=\"#urnuuida4b1e8e7-a6fd-42bd-b2fb-124fd5aa34e9\">See above (Patient/null)</a></p></div>"
          },
          "category": [
            {
              "coding": [
                {
                  "system": "http://terminology.hl7.org/CodeSystem/condition-category",
                  "code": "problem-list-item",
                  "display": "Problem List Item"
                }
              ]
            }
          ],
          "code": {
            "text": "Secondary Diagnosis 1"
          },
          "subject": {
            "reference": "urn:uuid:a4b1e8e7-a6fd-42bd-b2fb-124fd5aa34e9"
          }
        }
      },
      {
        "fullUrl": "urn:uuid:7bf3d52a-30f8-41b8-aad4-6c4517450f95",
        "resource": {
          "resourceType": "Condition",
          "text": {
            "status": "generated",
            "div": "<div xmlns=\"http://www.w3.org/1999/xhtml\"><p><b>Generated Narrative</b></p><p><b>category</b>: <span title=\"Codes: {http://terminology.hl7.org/CodeSystem/condition-category problem-list-item}\">Problem List Item</span></p><p><b>code</b>: <span title=\"Codes: \">Secondary Diagnosis 2</span></p><p><b>subject</b>: <a href=\"#urnuuida4b1e8e7-a6fd-42bd-b2fb-124fd5aa34e9\">See above (Patient/null)</a></p></div>"
          },
          "category": [
            {
              "coding": [
                {
                  "system": "http://terminology.hl7.org/CodeSystem/condition-category",
                  "code": "problem-list-item",
                  "display": "Problem List Item"
                }
              ]
            }
          ],
          "code": {
            "text": "Secondary Diagnosis 2"
          },
          "subject": {
            "reference": "urn:uuid:a4b1e8e7-a6fd-42bd-b2fb-124fd5aa34e9"
          }
        }
      },
      {
        "fullUrl": "urn:uuid:b31980c8-4246-48ee-af22-07634204051c",
        "resource": {
          "resourceType": "Condition",
          "text": {
            "status": "generated",
            "div": "<div xmlns=\"http://www.w3.org/1999/xhtml\"><p><b>Generated Narrative</b></p><p><b>category</b>: <span title=\"Codes: {http://terminology.hl7.org/CodeSystem/condition-category problem-list-item}\">Problem List Item</span></p><p><b>code</b>: <span title=\"Codes: {http://snomed.info/sct 64779008}\">Blood coagulation disorder (disorder)</span></p><p><b>subject</b>: <a href=\"#urnuuida4b1e8e7-a6fd-42bd-b2fb-124fd5aa34e9\">See above (Patient/null)</a></p></div>"
          },
          "category": [
            {
              "coding": [
                {
                  "system": "http://terminology.hl7.org/CodeSystem/condition-category",
                  "code": "problem-list-item",
                  "display": "Problem List Item"
                }
              ]
            }
          ],
          "code": {
            "coding": [
              {
                "system": "http://snomed.info/sct",
                "code": "64779008",
                "display": "Blood coagulation disorder (disorder)"
              }
            ]
          },
          "subject": {
            "reference": "urn:uuid:a4b1e8e7-a6fd-42bd-b2fb-124fd5aa34e9"
          }
        }
      },
      {
        "fullUrl": "urn:uuid:a339566a-d37b-4e15-bcbd-fbd37a2534d2",
        "resource": {
          "resourceType": "Condition",
          "text": {
            "status": "generated",
            "div": "<div xmlns=\"http://www.w3.org/1999/xhtml\"><p><b>Generated Narrative</b></p><p><b>category</b>: <span title=\"Codes: {http://terminology.hl7.org/CodeSystem/condition-category problem-list-item}\">Problem List Item</span></p><p><b>code</b>: <span title=\"Codes: {http://snomed.info/sct 723188008}\">Renal insufficiency (disorder)</span></p><p><b>subject</b>: <a href=\"#urnuuida4b1e8e7-a6fd-42bd-b2fb-124fd5aa34e9\">See above (Patient/null)</a></p><h3>Evidences</h3><table class=\"grid\"><tr><td>-</td><td><b>Detail</b></td></tr><tr><td>*</td><td><a href=\"#urnuuid4ac61e1d-6f4b-46d9-a914-81f327e37f0c\">See above (Observation/null)</a></td></tr></table></div>"
          },
          "category": [
            {
              "coding": [
                {
                  "system": "http://terminology.hl7.org/CodeSystem/condition-category",
                  "code": "problem-list-item",
                  "display": "Problem List Item"
                }
              ]
            }
          ],
          "code": {
            "coding": [
              {
                "system": "http://snomed.info/sct",
                "code": "723188008",
                "display": "Renal insufficiency (disorder)"
              }
            ]
          },
          "subject": {
            "reference": "urn:uuid:a4b1e8e7-a6fd-42bd-b2fb-124fd5aa34e9"
          },
          "evidence": [
            {
              "detail": [
                {
                  "reference": "urn:uuid:4ac61e1d-6f4b-46d9-a914-81f327e37f0c"
                }
              ]
            }
          ]
        }
      },
      {
        "fullUrl": "urn:uuid:4ac61e1d-6f4b-46d9-a914-81f327e37f0c",
        "resource": {
          "resourceType": "Observation",
          "text": {
            "status": "generated",
            "div": "<div xmlns=\"http://www.w3.org/1999/xhtml\"><p><b>Generated Narrative</b></p><p></p><p><b>code</b>: <span title=\"Codes: {http://snomed.info/sct 723188008}\">Renal insufficiency (disorder)</span></p><p><b>subject</b>: <a href=\"#urnuuida4b1e8e7-a6fd-42bd-b2fb-124fd5aa34e9\">See above (Patient/null)</a></p><p><b>effective</b>: Apr 1, 2019, 10:10:00 AM</p><p><b>value</b>: 90 umol/L</p></div>"
          },
          "status": "final",
          "code": {
            "coding": [
              {
                "system": "http://snomed.info/sct",
                "code": "723188008",
                "display": "Renal insufficiency (disorder)"
              }
            ]
          },
          "subject": {
            "reference": "urn:uuid:a4b1e8e7-a6fd-42bd-b2fb-124fd5aa34e9"
          },
          "effectiveDateTime": "2019-04-01T10:10:00.000+00:00",
          "valueQuantity": {
            "value": 90,
            "system": "http://unitsofmeasure.org",
            "code": "umol/L"
          }
        }
      },
      {
        "fullUrl": "urn:uuid:7d48e7e4-04ae-46ce-9eb8-51924aa4d5fd",
        "resource": {
          "resourceType": "Condition",
          "text": {
            "status": "generated",
            "div": "<div xmlns=\"http://www.w3.org/1999/xhtml\"><p><b>Generated Narrative</b></p><p><b>category</b>: <span title=\"Codes: {http://terminology.hl7.org/CodeSystem/condition-category problem-list-item}\">Problem List Item</span></p><p><b>code</b>: <span title=\"Codes: {http://snomed.info/sct 879862001}\">Body piercing (finding)</span></p><p><b>subject</b>: <a href=\"#urnuuida4b1e8e7-a6fd-42bd-b2fb-124fd5aa34e9\">See above (Patient/null)</a></p></div>"
          },
          "category": [
            {
              "coding": [
                {
                  "system": "http://terminology.hl7.org/CodeSystem/condition-category",
                  "code": "problem-list-item",
                  "display": "Problem List Item"
                }
              ]
            }
          ],
          "code": {
            "coding": [
              {
                "system": "http://snomed.info/sct",
                "code": "879862001",
                "display": "Body piercing (finding)"
              }
            ]
          },
          "subject": {
            "reference": "urn:uuid:a4b1e8e7-a6fd-42bd-b2fb-124fd5aa34e9"
          }
        }
      }
    ]
  }