<?xml version="1.0" encoding="UTF-8"?>

<Bundle xmlns="http://hl7.org/fhir">
  <id value="9cb31e03-24f7-4951-9ce8-9668521859b2"/>
  <identifier>
    <system value="urn:oid:2.16.840.1.113883.2.9.2.120.4.4"/>
    <value value="c030702.TSTSMN63A01F205H.20220325112426.TSS1Tkju"/>
    <assigner>
      <display value="Regione Lazio"/>
    </assigner>
  </identifier>
  <type value="transaction"/>
  <timestamp value="2022-03-30T11:24:26+01:00"/>
  <entry>
    <fullUrl value="urn:uuid:3a890f69-018e-4696-97fc-b8b99659eea0"/>
    <resource>
      <Composition>
        <id value="3a890f69-018e-4696-97fc-b8b99659eea0"/>
        <language value="it-IT"/>
        <identifier>
          <system value="urn:oid:2.16.840.1.113883.2.9.2.120.4.4"/>
          <value value="c030702.TSTSMN63A01F205H.20220325112426.TSS1Tkju"/>
          <assigner>
            <display value="Regione Lazio"/>
          </assigner>
        </identifier>
        <status value="final"/>
        <type>
          <coding>
            <system value="http://loinc.org"/>
            <code value="11502-2"/>
            <display value="Referto di laboratorio"/>
          </coding>
        </type>
        <subject>
          <reference value="urn:uuid:4b25ed6b-2d34-45bc-b12d-8fd13fd242e9"/>
        </subject>
        <encounter>
          <reference value="urn:uuid:69abcc2b-cc0f-4d90-9e85-cd03f8b406e8"/>
        </encounter>
        <date value="2022-03-30T11:24:26+01:00"/>
        <author>
          <reference value="urn:uuid:df82eebc-fb0a-4e22-ab44-944ee7757f61"/>
        </author>
        <author>
          <reference value="urn:uuid:98497c6e-96c2-449c-9a21-3d702b557280"/>
        </author>
        <title value="REFERTO DI LABORATORIO"/>
        <confidentiality value="N"/>
        <attester>
          <mode value="professional"/>
          <party>
            <reference value="urn:uuid:9dc7834e-0d6b-4a31-8277-cca2119e482c"/>
          </party>
        </attester>
        <attester>
          <mode value="legal"/>
          <time value="2022-03-25T11:00:00+01:00"/>
          <party>
            <reference value="urn:uuid:23bb5040-8917-4f5d-9c5a-bce352881bf5"/>
          </party>
        </attester>
        <attester>
          <mode value="professional"/>
          <time value="2022-03-25T11:00:00+01:00"/>
          <party>
            <reference value="urn:uuid:a8aa6362-d9a3-4aa4-b4a7-1ce2176d44ca"/>
          </party>
        </attester>
        <custodian>
          <reference value="urn:uuid:ae8c58ba-0a24-4861-bfe0-bcd82ba1f184"/>
        </custodian>
        <event>
          <period>
            <start value="2022-03-24T11:24:26+01:00"/>
          </period>
          <detail>
            <reference value="urn:uuid:272322b5-afe8-47b5-a2c4-a3d99b740b24"/>
          </detail>
        </event>
        <section>
          <title value="Esami delle Urine"/>
          <code>
            <coding>
              <system value="http://loinc.org"/>
              <code value="18729-4"/>
              <display value="ESAMI DELLE URINE"/>
            </coding>
          </code>
          <section>
            <title value="Albumina nelle Urine"/>
            <code>
              <coding>
                <system value="http://loinc.org"/>
                <code value="14957-5"/>
                <display value="Microalbumin Massa/Volume in Urine"/>
              </coding>
              <coding>
                <system value="urn:oid:2.16.840.1.113883.2.9.2.30.6.11"/>
                <code value="0090334.02"/>
                <display value="XXX"/>
              </coding>
            </code>
            <text>
              <status value="generated"/><div xmlns="http://www.w3.org/1999/xhtml"><ul><li><table id="nota1"><thead><tr><th>Esame</th><th>Metodo utilizzato per l'esame</th><th>Materiale utilizzato per l'esame</th><th>Risultato dell'esame</th><th>Commenti e note</th><th>Unità di Misura</th><th>Range di Riferimento</th><th>Criteri per il range di riferimento</th><th>Interpretazione</th><th>Allegati multimediali</th></tr></thead><tbody><tr><td>Microalbumina massa/volume in urine</td><td/><td>Urine</td><td>20</td><td/><td>mg/L</td><td> 0 - 20 </td><td/><td>N</td><td/></tr></tbody></table></li></ul></div>
            </text>
            <entry>
              <reference value="urn:uuid:2e8450d2-d78d-4810-bc47-881c90c4cc4f"/>
            </entry>
          </section>
        </section>
      </Composition>
    </resource>
    <request>
      <method value="POST"/>
      <url value="Composition/3a890f69-018e-4696-97fc-b8b99659eea0"/>
    </request>
  </entry>
  <entry>
    <fullUrl value="urn:uuid:4b25ed6b-2d34-45bc-b12d-8fd13fd242e9"/>
    <resource>
      <Patient>
        <id value="4b25ed6b-2d34-45bc-b12d-8fd13fd242e9"/>
        <extension url="http://hl7.org/fhir/StructureDefinition/patient-birthPlace">
          <valueAddress>
            <line value="Via voltri 3">
              <extension url="http://hl7.org/fhir/StructureDefinition/iso21090-ADXP-censusTract">
                <valueString value="058091"/>
              </extension>
            </line>
            <city value="Roma"/>
            <district value="RM"/>
            <state value="120"/>
            <country value="100"/>
          </valueAddress>
        </extension>
        <identifier>
          <system value="urn:oid:2.16.840.1.113883.2.9.4.3.2"/>
          <value value="TKLEYP93Y27Z315J"/>
          <assigner>
            <display value="MEF"/>
          </assigner>
        </identifier>
        <name>
          <family value="Verdi"/>
          <given value="Giuseppe"/>
        </name>
        <telecom>
          <system value="email"/>
          <value value="giuseppe.verdi@gmail.com"/>
          <use value="home"/>
        </telecom>
        <telecom>
          <system value="phone"/>
          <value value="33224456"/>
          <use value="mobile"/>
        </telecom>
        <gender value="male"/>
        <birthDate value="1993-06-19"/>
        <address>
          <use value="home"/>
          <line value="Via Aurora 12">
            <extension url="http://hl7.org/fhir/StructureDefinition/iso21090-ADXP-censusTract">
              <valueString value="058091"/>
            </extension>
          </line>
          <city value="Roma"/>
          <district value="RM"/>
          <state value="120"/>
          <postalCode value="00187"/>
          <country value="100"/>
        </address>
        <address>
          <use value="home"/>
          <line value="Via Canevari 12B">
            <extension url="http://hl7.org/fhir/StructureDefinition/iso21090-ADXP-censusTract">
              <valueString value="058091"/>
            </extension>
          </line>
          <city value="Roma"/>
          <district value="RM"/>
          <state value="120"/>
          <postalCode value="00138"/>
          <country value="100"/>
        </address>
      </Patient>
    </resource>
    <request>
      <method value="PUT"/>
      <url value="Patient?identifier=TKLEYP93Y27Z315J"/>
    </request>
  </entry>
  <entry>
    <fullUrl value="urn:uuid:69abcc2b-cc0f-4d90-9e85-cd03f8b406e8"/>
    <resource>
      <Encounter>
        <id value="69abcc2b-cc0f-4d90-9e85-cd03f8b406e8"/>
        <status value="finished"/>
        <class>
          <system value="http://terminology.hl7.org/CodeSystem/v3-ActCode"/>
          <code value="AMB"/>
          <display value="ambulatory"/>
        </class>
        <subject>
          <reference value="urn:uuid:4b25ed6b-2d34-45bc-b12d-8fd13fd242e9"/>
        </subject>
        <basedOn>
          <reference value="urn:uuid:84bfc014-2967-430a-84e1-796fd117366b"/>
        </basedOn>
        <participant>
          <type>
            <coding>
              <system value="http://terminology.hl7.org/CodeSystem/v3-ParticipationType"/>
              <code value="REF"/>
            </coding>
          </type>
          <period>
            <start value="2022-03-20T11:00:00+01:00"/>
          </period>
          <individual>
            <reference value="urn:uuid:c0bb39f5-0b80-4359-ab45-4c1f11e45432"/>
          </individual>
        </participant>
        <participant>
          <individual>
            <reference value="urn:uuid:655c1d72-261e-46a3-9766-ac6e09147f62"/>
          </individual>
        </participant>
        <period>
          <start value="2022-03-30T11:24:26+01:00"/>
        </period>
        <location>
          <location>
            <reference value="urn:uuid:78cc6549-fcfd-41d0-a8b7-613f9e6870e7"/>
          </location>
        </location>
      </Encounter>
    </resource>
    <request>
      <method value="POST"/>
      <url value="Encounter/69abcc2b-cc0f-4d90-9e85-cd03f8b406e8"/>
    </request>
  </entry>
  <entry>
    <fullUrl value="urn:uuid:95222532-6b73-4146-a0e3-7f0ba2dc8b69"/>
    <resource>
      <Specimen>
        <id value="95222532-6b73-4146-a0e3-7f0ba2dc8b69"/>
        <type>
          <coding>
<!--            <system value="urn:oid:2.16.840.1.113883.5.129"/> -->
            <system value="http://terminology.hl7.org/CodeSystem/v3-SpecimenType"/>
            <code value="UR"/>
            <display value="Urine"/>
          </coding>
        </type>
        <subject>
          <reference value="urn:uuid:4b25ed6b-2d34-45bc-b12d-8fd13fd242e9"/>
        </subject>
      </Specimen>
    </resource>
    <request>
      <method value="POST"/>
      <url value="Specimen/95222532-6b73-4146-a0e3-7f0ba2dc8b69"/>
    </request>
  </entry>
  <entry>
    <fullUrl value="urn:uuid:b0c5a660-527f-4d10-9d0b-e0d110ab4d9f"/>
    <resource>
      <DocumentReference>
        <id value="b0c5a660-527f-4d10-9d0b-e0d110ab4d9f"/>
        <status value="current"/>
        <subject>
          <reference value="urn:uuid:4b25ed6b-2d34-45bc-b12d-8fd13fd242e9"/>
        </subject>
        <author>
          <reference value="urn:uuid:db520691-adb8-46af-a8ef-003847cdcabc"/>
        </author>
        <custodian>
          <reference value="urn:uuid:ae8c58ba-0a24-4861-bfe0-bcd82ba1f184"/>
        </custodian>
        <content>
          <attachment>
            <title value="string"/>
          </attachment>
        </content>
        <context>
          <related>
            <reference value="urn:uuid:3a890f69-018e-4696-97fc-b8b99659eea0"/>
          </related>
        </context>
      </DocumentReference>
    </resource>
    <request>
      <method value="POST"/>
      <url value="DocumentReference/b0c5a660-527f-4d10-9d0b-e0d110ab4d9f"/>
    </request>
  </entry>
  <entry>
    <fullUrl value="urn:uuid:df82eebc-fb0a-4e22-ab44-944ee7757f61"/>
    <resource>
      <PractitionerRole>
        <id value="df82eebc-fb0a-4e22-ab44-944ee7757f61"/>
        <practitioner>
          <reference value="urn:uuid:db520691-adb8-46af-a8ef-003847cdcabc"/>
        </practitioner>
      </PractitionerRole>
    </resource>
    <request>
      <method value="POST"/>
      <url value="PractitionerRole/df82eebc-fb0a-4e22-ab44-944ee7757f61"/>
    </request>
  </entry>
  <entry>
    <fullUrl value="urn:uuid:db520691-adb8-46af-a8ef-003847cdcabc"/>
    <resource>
      <Practitioner>
        <id value="db520691-adb8-46af-a8ef-003847cdcabc"/>
        <identifier>
          <system value="urn:oid:2.16.840.1.113883.2.9.4.3.2"/>
          <value value="MTCORV58E63L294G"/>
          <assigner>
            <display value="MEF"/>
          </assigner>
        </identifier>
        <name>
          <family value="Cervone"/>
          <given value="Matteo"/>
          <prefix value="Dr"/>
        </name>
        <telecom>
          <system value="email"/>
          <value value="matteo.cervone@gmail.it"/>
          <use value="home"/>
        </telecom>
        <telecom>
          <system value="email"/>
          <value value="matteo.cervone@pec.it"/>
          <use value="work"/>
        </telecom>
        <telecom>
          <system value="phone"/>
          <value value="3478129873"/>
          <use value="mobile"/>
        </telecom>
        <address>
          <line value="Via Milano 7">
            <extension url="http://hl7.org/fhir/StructureDefinition/iso21090-ADXP-censusTract">
              <valueString value="058091"/>
            </extension>
          </line>
          <city value="Roma"/>
          <district value="RM"/>
          <state value="120"/>
          <postalCode value="00184"/>
          <country value="100"/>
        </address>
      </Practitioner>
    </resource>
    <request>
      <method value="PUT"/>
      <url value="Practitioner?identifier=MTCORV58E63L294G"/>
    </request>
  </entry>
  <entry>
    <fullUrl value="urn:uuid:98497c6e-96c2-449c-9a21-3d702b557280"/>
    <resource>
      <PractitionerRole>
        <id value="98497c6e-96c2-449c-9a21-3d702b557280"/>
        <practitioner>
          <reference value="urn:uuid:d049673a-cdc7-4110-8f92-d53edef1ef70"/>
        </practitioner>
      </PractitionerRole>
    </resource>
    <request>
      <method value="POST"/>
      <url value="PractitionerRole/98497c6e-96c2-449c-9a21-3d702b557280"/>
    </request>
  </entry>
  <entry>
    <fullUrl value="urn:uuid:d049673a-cdc7-4110-8f92-d53edef1ef70"/>
    <resource>
      <Practitioner>
        <id value="d049673a-cdc7-4110-8f92-d53edef1ef70"/>
        <identifier>
          <system value="urn:oid:2.16.840.1.113883.2.9.4.3.2"/>
          <value value="FPSSBN85G54D398H"/>
          <assigner>
            <display value="MEF"/>
          </assigner>
        </identifier>
        <name>
          <family value="Mancusi"/>
          <given value="Filippo"/>
        </name>
      </Practitioner>
    </resource>
    <request>
      <method value="PUT"/>
      <url value="Practitioner?identifier=FPSSBN85G54D398H"/>
    </request>
  </entry>
  <entry>
    <fullUrl value="urn:uuid:ae8c58ba-0a24-4861-bfe0-bcd82ba1f184"/>
    <resource>
      <Organization>
        <id value="ae8c58ba-0a24-4861-bfe0-bcd82ba1f184"/>
        <identifier>
          <system value="urn:oid:2.16.840.1.113883.2.9.4.1.2"/>
          <value value="120148"/>
          <assigner>
            <display value="Ministero della Salute"/>
          </assigner>
        </identifier>
        <name value="SAN RAFFAELE NOMENTANA"/>
        <telecom>
          <system value="phone"/>
          <value value=" 390 666 0581"/>
          <use value="work"/>
        </telecom>
        <address>
          <line value="Via Emilio Praga 39">
            <extension url="http://hl7.org/fhir/StructureDefinition/iso21090-ADXP-censusTract">
              <valueString value="058091"/>
            </extension>
          </line>
          <city value="Roma"/>
          <district value="RM"/>
          <state value="120"/>
          <postalCode value="00137"/>
          <country value="100"/>
        </address>
      </Organization>
    </resource>
    <request>
      <method value="PUT"/>
      <url value="Organization?identifier=120148"/>
    </request>
  </entry>
  <entry>
    <fullUrl value="urn:uuid:9dc7834e-0d6b-4a31-8277-cca2119e482c"/>
    <resource>
      <Practitioner>
        <id value="9dc7834e-0d6b-4a31-8277-cca2119e482c"/>
        <identifier>
          <system value="urn:oid:2.16.840.1.113883.2.9.4.3.2"/>
          <value value="MURRSI88Y67R012G"/>
          <assigner>
            <display value="MEF"/>
          </assigner>
        </identifier>
        <name>
          <family value="Rossi"/>
          <given value="Maura"/>
        </name>
        <telecom>
          <system value="phone"/>
          <value value="062866794"/>
          <use value="work"/>
        </telecom>
      </Practitioner>
    </resource>
    <request>
      <method value="PUT"/>
      <url value="Practitioner?identifier=MURRSI88Y67R012G"/>
    </request>
  </entry>
  <entry>
    <fullUrl value="urn:uuid:23bb5040-8917-4f5d-9c5a-bce352881bf5"/>
    <resource>
      <PractitionerRole>
        <id value="23bb5040-8917-4f5d-9c5a-bce352881bf5"/>
        <practitioner>
          <reference value="urn:uuid:04fe1ced-036d-4263-9d64-f1b98c800b54"/>
        </practitioner>
      </PractitionerRole>
    </resource>
    <request>
      <method value="POST"/>
      <url value="PractitionerRole/23bb5040-8917-4f5d-9c5a-bce352881bf5"/>
    </request>
  </entry>
  <entry>
    <fullUrl value="urn:uuid:04fe1ced-036d-4263-9d64-f1b98c800b54"/>
    <resource>
      <Practitioner>
        <id value="04fe1ced-036d-4263-9d64-f1b98c800b54"/>
        <identifier>
          <system value="urn:oid:2.16.840.1.113883.2.9.4.3.2"/>
          <value value="GPSDGK80E76C765V"/>
          <assigner>
            <display value="MEF"/>
          </assigner>
        </identifier>
        <name>
          <family value="Righi"/>
          <given value="Federico"/>
          <prefix value="Dttr."/>
        </name>
        <telecom>
          <system value="email"/>
          <value value="righi.federico@gmail.com"/>
          <use value="home"/>
        </telecom>
        <telecom>
          <system value="phone"/>
          <value value="330987986"/>
          <use value="mobile"/>
        </telecom>
        <address>
          <line value="Via Corvetto 3">
            <extension url="http://hl7.org/fhir/StructureDefinition/iso21090-ADXP-censusTract">
              <valueString value="058091"/>
            </extension>
          </line>
          <city value="Roma"/>
          <district value="RM"/>
          <state value="120"/>
          <postalCode value="00164"/>
          <country value="100"/>
        </address>
      </Practitioner>
    </resource>
    <request>
      <method value="PUT"/>
      <url value="Practitioner?identifier=GPSDGK80E76C765V"/>
    </request>
  </entry>
  <entry>
    <fullUrl value="urn:uuid:a8aa6362-d9a3-4aa4-b4a7-1ce2176d44ca"/>
    <resource>
      <PractitionerRole>
        <id value="a8aa6362-d9a3-4aa4-b4a7-1ce2176d44ca"/>
        <practitioner>
          <reference value="urn:uuid:42973db4-f512-4dcf-8a83-9bbc9b1b071c"/>
        </practitioner>
      </PractitionerRole>
    </resource>
    <request>
      <method value="POST"/>
      <url value="PractitionerRole/a8aa6362-d9a3-4aa4-b4a7-1ce2176d44ca"/>
    </request>
  </entry>
  <entry>
    <fullUrl value="urn:uuid:42973db4-f512-4dcf-8a83-9bbc9b1b071c"/>
    <resource>
      <Practitioner>
        <id value="42973db4-f512-4dcf-8a83-9bbc9b1b071c"/>
        <identifier>
          <system value="urn:oid:2.16.840.1.113883.2.9.4.3.2"/>
          <value value="RBTAMA67H99H467D"/>
          <assigner>
            <display value="MEF"/>
          </assigner>
        </identifier>
        <name>
          <family value="Rossi"/>
          <given value="Roberta"/>
        </name>
        <telecom>
          <system value="email"/>
          <value value="maggi.roberta@gmail.com"/>
          <use value="home"/>
        </telecom>
        <telecom>
          <system value="phone"/>
          <value value="22998276800"/>
          <use value="home"/>
        </telecom>
        <address>
          <line value="Via Corvetto 3">
            <extension url="http://hl7.org/fhir/StructureDefinition/iso21090-ADXP-censusTract">
              <valueString value="058091"/>
            </extension>
          </line>
          <city value="Roma"/>
          <district value="RM"/>
          <state value="120"/>
          <postalCode value="00164"/>
          <country value="100"/>
        </address>
      </Practitioner>
    </resource>
    <request>
      <method value="PUT"/>
      <url value="Practitioner?identifier=RBTAMA67H99H467D"/>
    </request>
  </entry>
  <entry>
    <fullUrl value="urn:uuid:c0bb39f5-0b80-4359-ab45-4c1f11e45432"/>
    <resource>
      <PractitionerRole>
        <id value="c0bb39f5-0b80-4359-ab45-4c1f11e45432"/>
        <practitioner>
          <reference value="urn:uuid:09405aa7-5b36-47fb-97dd-bb5ef123ed4e"/>
        </practitioner>
        <organization>
          <reference value="urn:uuid:c0d51238-25da-4adf-84ea-24a3836790c9"/>
        </organization>
        <code>
          <coding>
            <system value="urn:oid:2.16.840.1.113883.2.9.5.1.88"/>
            <code value="PRE"/>
          </coding>
        </code>
      </PractitionerRole>
    </resource>
    <request>
      <method value="POST"/>
      <url value="PractitionerRole/c0bb39f5-0b80-4359-ab45-4c1f11e45432"/>
    </request>
  </entry>
  <entry>
    <fullUrl value="urn:uuid:09405aa7-5b36-47fb-97dd-bb5ef123ed4e"/>
    <resource>
      <Practitioner>
        <id value="09405aa7-5b36-47fb-97dd-bb5ef123ed4e"/>
        <identifier>
          <system value="urn:oid:2.16.840.1.113883.2.9.4.3.2"/>
          <value value="STVMG77F45N079MF"/>
          <assigner>
            <display value="MEF"/>
          </assigner>
        </identifier>
        <name>
          <family value="Maggi"/>
          <given value="Silvia"/>
        </name>
        <telecom>
          <system value="email"/>
          <value value="maggi.silvia@gmail.com"/>
          <use value="home"/>
        </telecom>
        <address>
          <line value="Via Vittorio Veneto 3">
            <extension url="http://hl7.org/fhir/StructureDefinition/iso21090-ADXP-censusTract">
              <valueString value="058091"/>
            </extension>
          </line>
          <city value="Roma"/>
          <district value="RM"/>
          <state value="120"/>
          <postalCode value="00187"/>
          <country value="100"/>
        </address>
      </Practitioner>
    </resource>
    <request>
      <method value="PUT"/>
      <url value="Practitioner?identifier=STVMG77F45N079MF"/>
    </request>
  </entry>
  <entry>
    <fullUrl value="urn:uuid:c0d51238-25da-4adf-84ea-24a3836790c9"/>
    <resource>
      <Organization>
        <id value="c0d51238-25da-4adf-84ea-24a3836790c9"/>
        <identifier>
          <system value="urn:oid:2.16.840.1.113883.2.9.4.1.2"/>
          <value value="120148"/>
          <assigner>
            <display value="Ministero della Salute"/>
          </assigner>
        </identifier>
        <name value="SAN RAFFAELE NOMENTANA"/>
        <telecom>
          <system value="phone"/>
          <value value=" 390 666 0581"/>
          <use value="work"/>
        </telecom>
        <address>
          <line value="Via Emilio Praga 39">
            <extension url="http://hl7.org/fhir/StructureDefinition/iso21090-ADXP-censusTract">
              <valueString value="058091"/>
            </extension>
          </line>
          <city value="Roma"/>
          <district value="RM"/>
          <state value="120"/>
          <postalCode value="00137"/>
          <country value="100"/>
        </address>
      </Organization>
    </resource>
    <request>
      <method value="PUT"/>
      <url value="Organization?identifier=120148"/>
    </request>
  </entry>
  <entry>
    <fullUrl value="urn:uuid:84bfc014-2967-430a-84e1-796fd117366b"/>
    <resource>
      <ServiceRequest>
        <id value="84bfc014-2967-430a-84e1-796fd117366b"/>
        <identifier>
          <system value="urn:oid:2.16.840.1.113883.2.9.4.3.9"/>
          <value value="[NRE]"/>
          <assigner>
            <display value="Ministero delle Finanze"/>
          </assigner>
        </identifier>
        <status value="active"/>
        <intent value="order"/>
        <priority value="asap"/>
        <subject>
          <reference value="urn:uuid:4b25ed6b-2d34-45bc-b12d-8fd13fd242e9"/>
        </subject>
        <encounter>
          <reference value="urn:uuid:69abcc2b-cc0f-4d90-9e85-cd03f8b406e8"/>
        </encounter>
      </ServiceRequest>
    </resource>
    <request>
      <method value="POST"/>
      <url value="ServiceRequest/84bfc014-2967-430a-84e1-796fd117366b"/>
    </request>
  </entry>
  <entry>
    <fullUrl value="urn:uuid:272322b5-afe8-47b5-a2c4-a3d99b740b24"/>
    <resource>
      <PractitionerRole>
        <id value="272322b5-afe8-47b5-a2c4-a3d99b740b24"/>
        <practitioner>
          <reference value="urn:uuid:5f5a09d8-61ee-4ce3-a07f-6fc0799e4118"/>
        </practitioner>
        <organization>
          <reference value="urn:uuid:c3b42bd1-6b88-4e9f-95d2-ce7f1d622431"/>
        </organization>
      </PractitionerRole>
    </resource>
    <request>
      <method value="POST"/>
      <url value="PractitionerRole/272322b5-afe8-47b5-a2c4-a3d99b740b24"/>
    </request>
  </entry>
  <entry>
    <fullUrl value="urn:uuid:5f5a09d8-61ee-4ce3-a07f-6fc0799e4118"/>
    <resource>
      <Practitioner>
        <id value="5f5a09d8-61ee-4ce3-a07f-6fc0799e4118"/>
        <identifier>
          <system value="urn:oid:2.16.840.1.113883.2.9.4.3.2"/>
          <value value="MRSSIO79H59Z317K"/>
          <assigner>
            <display value="MEF"/>
          </assigner>
        </identifier>
        <name>
          <family value="Rossi"/>
          <given value="Mario"/>
        </name>
      </Practitioner>
    </resource>
    <request>
      <method value="PUT"/>
      <url value="Practitioner?identifier=MRSSIO79H59Z317K"/>
    </request>
  </entry>
  <entry>
    <fullUrl value="urn:uuid:c3b42bd1-6b88-4e9f-95d2-ce7f1d622431"/>
    <resource>
      <Organization>
        <id value="c3b42bd1-6b88-4e9f-95d2-ce7f1d622431"/>
        <identifier>
          <system value="urn:oid:2.16.840.1.113883.2.9.4.1.3"/>
          <value value="327700102"/>
          <assigner>
            <display value="Ministero della Salute"/>
          </assigner>
        </identifier>
        <name value="Nuovo Ospedale S.Agostino (MO)"/>
        <partOf>
          <reference value="urn:uuid:6decd9c4-3ad8-4237-b497-11b50504493a"/>
        </partOf>
      </Organization>
    </resource>
    <request>
      <method value="PUT"/>
      <url value="Organization?identifier=327700102"/>
    </request>
  </entry>
  <entry>
    <fullUrl value="urn:uuid:6decd9c4-3ad8-4237-b497-11b50504493a"/>
    <resource>
      <Organization>
        <id value="6decd9c4-3ad8-4237-b497-11b50504493a"/>
        <identifier>
          <system value="urn:oid:2.16.840.1.113883.2.9.4.1.1"/>
          <value value="080105"/>
          <assigner>
            <display value="Ministero della Salute"/>
          </assigner>
        </identifier>
      </Organization>
    </resource>
    <request>
      <method value="PUT"/>
      <url value="Organization?identifier=080105"/>
    </request>
  </entry>
  <entry>
    <fullUrl value="urn:uuid:655c1d72-261e-46a3-9766-ac6e09147f62"/>
    <resource>
      <PractitionerRole>
        <id value="655c1d72-261e-46a3-9766-ac6e09147f62"/>
        <practitioner>
          <reference value="urn:uuid:f58de0e3-fc6a-4778-bb65-85895e88c0c8"/>
        </practitioner>
      </PractitionerRole>
    </resource>
    <request>
      <method value="POST"/>
      <url value="PractitionerRole/655c1d72-261e-46a3-9766-ac6e09147f62"/>
    </request>
  </entry>
  <entry>
    <fullUrl value="urn:uuid:f58de0e3-fc6a-4778-bb65-85895e88c0c8"/>
    <resource>
      <Practitioner>
        <id value="f58de0e3-fc6a-4778-bb65-85895e88c0c8"/>
        <identifier>
          <system value="urn:oid:2.16.840.1.113883.2.9.4.3.2"/>
          <value value="SVATPR85Y37T079B"/>
          <assigner>
            <display value="MEF"/>
          </assigner>
        </identifier>
        <name>
          <family value="Turri"/>
          <given value="Silvia"/>
        </name>
      </Practitioner>
    </resource>
    <request>
      <method value="PUT"/>
      <url value="Practitioner?identifier=SVATPR85Y37T079B"/>
    </request>
  </entry>
  <entry>
    <fullUrl value="urn:uuid:78cc6549-fcfd-41d0-a8b7-613f9e6870e7"/>
    <resource>
      <Location>
        <id value="78cc6549-fcfd-41d0-a8b7-613f9e6870e7"/>
        <identifier>
          <system value="urn:oid:2.16.840.1.113883.2.9.4.1.6"/>
          <value value="XXX"/>
          <assigner>
            <display value="Ministero della Salute"/>
          </assigner>
        </identifier>
        <managingOrganization>
          <reference value="urn:uuid:7e9cf835-9b2f-4ff8-bcae-cf140300a0dc"/>
        </managingOrganization>
      </Location>
    </resource>
    <request>
      <method value="PUT"/>
      <url value="Location?identifier=XXX"/>
    </request>
  </entry>
  <entry>
    <fullUrl value="urn:uuid:7e9cf835-9b2f-4ff8-bcae-cf140300a0dc"/>
    <resource>
      <Organization>
        <id value="7e9cf835-9b2f-4ff8-bcae-cf140300a0dc"/>
        <identifier>
          <system value="urn:oid:2.16.840.1.113883.2.9.4.1.2"/>
          <value value="XXX"/>
          <assigner>
            <display value="Ministero della Salute"/>
          </assigner>
        </identifier>
        <name value="[nome_presidio]"/>
        <telecom>
          <system value="phone"/>
          <value value="0115678965"/>
          <use value="work"/>
        </telecom>
        <partOf>
          <reference value="urn:uuid:c81d9b1a-bffd-431f-93f1-3a193b6f4f4b"/>
        </partOf>
      </Organization>
    </resource>
    <request>
      <method value="PUT"/>
      <url value="Organization?identifier=XXX"/>
    </request>
  </entry>
  <entry>
    <fullUrl value="urn:uuid:c81d9b1a-bffd-431f-93f1-3a193b6f4f4b"/>
    <resource>
      <Organization>
        <id value="c81d9b1a-bffd-431f-93f1-3a193b6f4f4b"/>
        <identifier>
          <system value="urn:oid:2.16.840.1.113883.2.9.4.1.1"/>
          <value value="XXX"/>
          <assigner>
            <display value="Ministero della Salute"/>
          </assigner>
        </identifier>
      </Organization>
    </resource>
    <request>
      <method value="PUT"/>
      <url value="Organization?identifier=XXX"/>
    </request>
  </entry>
  <entry>
    <fullUrl value="urn:uuid:2e8450d2-d78d-4810-bc47-881c90c4cc4f"/>
    <resource>
      <DiagnosticReport>
        <id value="2e8450d2-d78d-4810-bc47-881c90c4cc4f"/>
        <status value="registered"/>
        <code>
          <coding>
            <system value="http://loinc.org"/>
            <code value="14957-5"/>
            <display value="Microalbumin Massa/Volume in Urine"/>
          </coding>
        </code>
        <subject>
          <reference value="urn:uuid:4b25ed6b-2d34-45bc-b12d-8fd13fd242e9"/>
        </subject>
        <encounter>
          <reference value="urn:uuid:69abcc2b-cc0f-4d90-9e85-cd03f8b406e8"/>
        </encounter>
        <specimen>
          <reference value="urn:uuid:95222532-6b73-4146-a0e3-7f0ba2dc8b69"/>
        </specimen>
        <result>
          <reference value="urn:uuid:302b3ea4-b150-4ba8-a49c-d346e8b9d88b"/>
        </result>
      </DiagnosticReport>
    </resource>
    <request>
      <method value="POST"/>
      <url value="DiagnosticReport/2e8450d2-d78d-4810-bc47-881c90c4cc4f"/>
    </request>
  </entry>
  <entry>
    <fullUrl value="urn:uuid:302b3ea4-b150-4ba8-a49c-d346e8b9d88b"/>
    <resource>
      <Observation>
        <id value="302b3ea4-b150-4ba8-a49c-d346e8b9d88b"/>
        <status value="final"/>
        <code>
          <coding>
            <system value="http://loinc.org"/>
            <code value="14957-5"/>
            <display value="Microalbumin Massa/Volume in Urine"/>
          </coding>
          <coding>
            <system value="urn:oid:2.16.840.1.113883.2.9.2.30.6.11"/>
            <code value="0090334.02"/>
            <display value="Albumina nelle urine"/>
          </coding>
        </code>
        <subject>
          <reference value="urn:uuid:4b25ed6b-2d34-45bc-b12d-8fd13fd242e9"/>
        </subject>
        <encounter>
          <reference value="urn:uuid:69abcc2b-cc0f-4d90-9e85-cd03f8b406e8"/>
        </encounter>
        <effectiveDateTime value="2022-03-30T11:24:26+01:00"/>
        <valueQuantity>
          <value value="16.00"/>
          <unit value="mg/L"/>
        </valueQuantity>
        <interpretation>
          <coding>
<!--            <system value="urn:oid:2.16.840.1.113883.5.83"/> -->
            <system value="http://terminology.hl7.org/CodeSystem/v3-ObservationInterpretation" />
            <code value="N"/>
            <display value="Normal"/>
          </coding>
        </interpretation>
        <specimen>
          <reference value="urn:uuid:95222532-6b73-4146-a0e3-7f0ba2dc8b69"/>
        </specimen>
        <referenceRange>
          <low>
            <value value="0.00"/>
            <unit value="mg/L"/>
          </low>
          <high>
            <value value="20.00"/>
            <unit value="mg/L"/>
          </high>
          <type>
            <coding>
<!--              <system value="urn:oid:2.16.840.1.113883.5.83"/> -->
            <system value="http://terminology.hl7.org/CodeSystem/v3-ObservationInterpretation" /> 
              <code value="N"/>
              <display value="Normal"/>
            </coding>
          </type>
          <appliesTo>
            <coding>
              <system value="http://loinc.org"/>
              <code value="30525-0"/>
              <display value="Età"/>
            </coding>
          </appliesTo>
          <age>
            <high>
              <value value="60"/>
            </high>
          </age>
        </referenceRange>
      </Observation>
    </resource>
    <request>
      <method value="POST"/>
      <url value="Observation/302b3ea4-b150-4ba8-a49c-d346e8b9d88b"/>
    </request>
  </entry>
</Bundle>