{
    "resourceType": "Bundle",
    "id": "2-7-BundleProvideDocument",
    "meta": {
		"profile": [
			"http://fhir.ch/ig/ch-epr-mhealth/StructureDefinition/ch-mhd-providedocumentbundle-comprehensive",
            "http://ihe.net/fhir/StructureDefinition/IHE_MHD_Provide_Comprehensive_DocumentBundle",
            "http://ihe.net/fhir/ihe.mhd.fhir/StructureDefinition/IHE.MHD.ProvideDocumentBundle.Comprehensive"
		]
	},
    "type": "transaction",
    "entry": [
        {
            "fullUrl": "urn:uuid:d8d1fe44-07e9-4a84-985f-fde97d77d54b",
            "resource": {
                "resourceType": "Binary",
                "contentType": "text/plain",
                "data": ""
            },
            "request": {
                "method": "POST",
                "url": "urn:uuid:d8d1fe44-07e9-4a84-985f-fde97d77d54b"
            }
        },
        {
            "fullUrl": "urn:uuid:68a928c0-df48-4743-a291-bfb0609bbddc",
            "resource": {
                "resourceType": "DocumentManifest",
                "meta": {
                    "profile": [
                        "http://fhir.ch/ig/ch-epr-mhealth/StructureDefinition/ch-mhd-comprehensive-documentmanifest",
                        "http://ihe.net/fhir/ihe.mhd.fhir/StructureDefinition/IHE.MHD.Comprehensive.DocumentManifest"
                    ]
                },
                "extension": [
                    {
                        "url": "http://fhir.ch/ig/ch-epr-mhealth/StructureDefinition/ch-ext-author-authorrole",
                        "valueCoding": {
                            "system": "urn:oid:2.16.756.5.30.1.127.3.10.6",
                            "code": "HCP",
                            "display": "Healthcare professional"
                        }
                    }
                ],
                "masterIdentifier": {
                    "value": "urn:oid:1.3.6.1.4.1.12559.11.13.2.6.2949"
                },
                "identifier": [
                    {
                        "system": "urn:ietf:rfc:3986",
                        "value": "urn:uuid:8c3e40b2-3cf9-4980-b4fb-cc84ba8a181a"
                    }
                ],
                "status": "current",
                "type": {
                    "coding": [
                        {
                            "system": "http://snomed.info/sct",
                            "code": "71388002",
                            "display": "Procedure (procedure)"
                        }
                    ]
                },
                "subject": {
                    "reference": "http://example.org/Patient/FranzMusterNeedsAbsoluteUrl"
                },
                "content": [
                    {
                        "reference": "urn:uuid:50383ae5-49e5-4dea-b0e6-660cb9e7b91f"
                    }
                ],
                "created": "2020-06-29T12:01:30+00:00",
                "source": "urn:oid:1.3.6.1.4.1.12559.11.13.2.5"
            },
            "request": {
                "method": "POST",
                "url": "urn:uuid:68a928c0-df48-4743-a291-bfb0609bbddc"
            }
        },
        {
            "fullUrl": "urn:uuid:50383ae5-49e5-4dea-b0e6-660cb9e7b91f",
            "resource": {
                "resourceType": "DocumentReference",
                "meta": {
                    "profile": [
                        "http://fhir.ch/ig/ch-epr-mhealth/StructureDefinition/ch-mhd-provide-comprehensive-documentreference",
                        "http://ihe.net/fhir/ihe.mhd.fhir/StructureDefinition/IHE.MHD.Provide.Comprehensive.DocumentReference"
                    ]
                },
                "contained": [
                    {
                        "resourceType": "Patient",
                        "id": "1",
                        "identifier": [
                            {
                                "use": "usual",
                                "type": {
                                    "coding": [
                                        {
                                            "system": "http://terminology.hl7.org/CodeSystem/v2-0203",
                                            "code": "MR"
                                        }
                                    ]
                                },
                                "system": "urn:oid:2.16.756.888888.3.1",
                                "value": "8734"
                            }
                        ]
                    }
                ],
                "extension": [
                    {
                        "url": "http://fhir.ch/ig/ch-epr-mhealth/StructureDefinition/ch-ext-deletionstatus",
                        "valueCoding": {
                            "system": "http://fhir.ch/ig/ch-epr-mhealth/CodeSysteme/ch-ehealth-codesystem-deletionstatus",
                            "code": "deletionNotRequested"
                        }
                    }
                ],
                "masterIdentifier": {
                    "value": "urn:oid:1.3.6.1.4.1.12559.11.13.2.1.2951"
                },
                "identifier": [
                    {
                        "use": "official",
                        "system": "urn:ietf:rfc:3986",
                        "value": "urn:uuid:50383ae5-49e5-4dea-b0e6-660cb9e7b91f"
                    }
                ],
                "status": "current",
                "type": {
                    "coding": [
                        {
                            "system": "http://snomed.info/sct",
                            "code": "721912009",
                            "display": "Medication summary document (record artifact)"
                        }
                    ]
                },
                "category": [
                    {
                        "coding": [
                            {
                                "system": "http://snomed.info/sct",
                                "code": "422735006",
                                "display": "Summary clinical document (record artifact)"
                            }
                        ]
                    }
                ],
                "subject": {
                    "reference": "http://example.org/Patient/FranzMusterNeedsAbsoluteUrl"
                },
                "date": "2020-06-29T11:58:00+00:00",
                "description": "2-7-MedicationCard",
                "securityLabel": [
                    {
                        "coding": [
                            {
                                "system": "http://snomed.info/sct",
                                "code": "17621005",
                                "display": "Normal (qualifier value)"
                            }
                        ]
                    }
                ],
                "content": [
                    {
                        "attachment": {
                            "contentType": "text/xml",
                            "language": "de-CH",
                            "url": "urn:uuid:d8d1fe44-07e9-4a84-985f-fde97d77d54b",
                            "creation": "2020-06-29T11:58:00+00:00"
                        },
                        "format": {
                            "system": "urn:oid:1.3.6.1.4.1.19376.1.2.3",
                            "code": "urn:ihe:pharm:pml:2013",
                            "display": "Community Medication List"
                        }
                    }
                ],
                "context": {
                    "facilityType": {
                        "coding": [
                            {
                                "system": "http://snomed.info/sct",
                                "code": "264358009",
                                "display": "General practice premises (environment)"
                            }
                        ]
                    },
                    "practiceSetting": {
                        "coding": [
                            {
                                "system": "http://snomed.info/sct",
                                "code": "394802001",
                                "display": "General medicine (qualifier value)"
                            }
                        ]
                    },
                    "sourcePatientInfo": {
                        "reference": "#1"
                    }
                }
            },
            "request": {
                "method": "POST",
                "url": "urn:uuid:5604f114-bf96-4c12-8dac-25715a05cf3f"
            }
        }
    ]
}