{
  "resourceType": "Bundle",
  "id": "2-7-MedicationCard",
  "meta": {
    "lastUpdated": "2020-02-21T12:31:59.738+00:00",
    "profile": [
      "http://fhir.ch/ig/ch-emed/StructureDefinition/ch-emed-document-medicationcard"
    ]
  },
  "identifier": {
    "system": "urn:ietf:rfc:3986",
    "value": "urn:uuid:6b6ed376-a7da-44cb-92d1-e75ce1ae73b0"
  },
  "type": "document",
  "timestamp": "2012-02-04T14:05:00+01:00",
  "entry": [
    {
      "fullUrl": "http://test.fhir.ch/r4/Composition/2-7-MedicationCard",
      "resource": {
        "resourceType": "Composition",
        "id": "2-7-MedicationCard",
        "language": "de-CH",
        "text": {
          "status": "extensions",
          "div": "<div xmlns=\"http://www.w3.org/1999/xhtml\" xml:lang=\"de-CH\" lang=\"de-CH\"><p><b>Generated Narrative</b></p><p><b>EPR Information Recipient</b>: <a href=\"#Patient_MonikaWegmuellerRecipient\">See above (Patient/MonikaWegmuellerRecipient)</a></p><p><b>identifier</b>: id: urn:uuid:6b6ed376-a7da-44cb-92d1-e75ce1ae73b0</p><p><b>status</b>: final</p><p><b>type</b>: <span title=\"Codes: {http://loinc.org 56445-0}, {http://snomed.info/sct 721912009}\">Medication summary</span></p><p><b>date</b>: Feb 4, 2012, 2:05:00 PM</p><p><b>author</b>: </p><ul><li><a href=\"#Practitioner_FamilienHausarzt\">See above (Practitioner/FamilienHausarzt)</a></li><li><a href=\"#Organization_Hausarzt\">See above (Organization/Hausarzt)</a></li></ul><p><b>title</b>: Medikationsplan</p><p><b>confidentiality</b>: N</p><p><b>custodian</b>: <a href=\"#Organization_Custodian\">See above (Organization/Custodian)</a></p></div>"
        },
        "extension": [
          {
            "url": "http://fhir.ch/ig/ch-core/StructureDefinition/ch-ext-epr-informationrecipient",
            "valueReference": {
              "reference": "Patient/MonikaWegmuellerRecipient"
            }
          }
        ],
        "identifier": {
          "system": "urn:ietf:rfc:3986",
          "value": "urn:uuid:6b6ed376-a7da-44cb-92d1-e75ce1ae73b0"
        },
        "status": "final",
        "type": {
          "coding": [
            {
              "system": "http://loinc.org",
              "code": "56445-0",
              "display": "Medication summary"
            },
            {
              "system": "http://snomed.info/sct",
              "code": "721912009",
              "display": "Medication summary document (record artifact)"
            }
          ]
        },
        "subject": {
          "reference": "Patient/MonikaWegmueller"
        },
        "date": "2012-02-04T14:05:00+01:00",
        "author": [
          {
            "extension": [
              {
                "url": "http://fhir.ch/ig/ch-core/StructureDefinition/ch-ext-epr-time",
                "valueDateTime": "2012-02-04T13:55:00+01:00"
              }
            ],
            "reference": "Practitioner/FamilienHausarzt"
          },
          {
            "reference": "Organization/Hausarzt"
          }
        ],
        "title": "Medikationsplan",
        "confidentiality": "N",
        "_confidentiality": {
          "extension": [
            {
              "url": "http://fhir.ch/ig/ch-core/StructureDefinition/ch-ext-epr-confidentialitycode",
              "valueCodeableConcept": {
                "coding": [
                  {
                    "system": "http://snomed.info/sct",
                    "code": "17621005",
                    "display": "Normally accessible"
                  }
                ]
              }
            }
          ]
        },
        "custodian": {
          "reference": "Organization/Custodian"
        },
        "section": [
          {
            "title": "Medikamentenliste",
            "code": {
              "coding": [
                {
                  "system": "http://loinc.org",
                  "code": "10160-0",
                  "display": "History of medication use"
                }
              ]
            },
            "entry": [
              {
                "reference": "MedicationStatement/2-7-MedStatBeloczok"
              },
              {
                "reference": "MedicationStatement/2-7-MedStatNorvasc"
              }
            ]
          },
          {
            "title": "Kommentar",
            "code": {
              "coding": [
                {
                  "system": "http://loinc.org",
                  "code": "48767-8",
                  "display": "Annotation comment"
                }
              ]
            },
            "text": {
              "status": "generated",
              "div": "<div xmlns=\"http://www.w3.org/1999/xhtml\">\n<span id=\"co1\">\nKommentar zu Medication Treatment\n              </span>\n            </div>"
            }
          },
          {
            "title": "Original Darstellung",
            "code": {
              "coding": [
                {
                  "system": "http://loinc.org",
                  "code": "55108-5",
                  "display": "Clinical presentation"
                }
              ]
            },
            "text": {
              "status": "generated",
              "div": "<div xmlns=\"http://www.w3.org/1999/xhtml\">\n              <a href=\"Binary/2-7-pdf\">Representation of the original view</a>\n            </div>"
            },
            "entry": [
              {
                "reference": "Binary/2-7-pdf"
              }
            ]
          }
        ]
      }
    },
    {
      "fullUrl": "http://test.fhir.ch/r4/Patient/MonikaWegmueller",
      "resource": {
        "resourceType": "Patient",
        "id": "MonikaWegmueller",
        "text": {
          "status": "generated",
          "div": "<div xmlns=\"http://www.w3.org/1999/xhtml\"><p><b>Generated Narrative</b></p><p><b>identifier</b>: Medical record number: 11111111</p><p><b>name</b>: Monika Wegmüller </p><p><b>gender</b>: female</p><p><b>birthDate</b>: 1943-05-15</p><p><b>address</b>: Wiesenstr. 12 Zürich 8003 CH </p></div>"
        },
        "identifier": [
          {
            "type": {
              "coding": [
                {
                  "system": "http://terminology.hl7.org/CodeSystem/v2-0203",
                  "code": "MR"
                }
              ]
            },
            "system": "urn:oid:2.999",
            "value": "11111111"
          }
        ],
        "name": [
          {
            "family": "Wegmüller",
            "given": [
              "Monika"
            ]
          }
        ],
        "gender": "female",
        "birthDate": "1943-05-15",
        "address": [
          {
            "line": [
              "Wiesenstr. 12"
            ],
            "city": "Zürich",
            "postalCode": "8003",
            "country": "CH"
          }
        ]
      }
    },
    {
      "fullUrl": "http://test.fhir.ch/r4/Practitioner/FamilienHausarzt",
      "resource": {
        "resourceType": "Practitioner",
        "id": "FamilienHausarzt",
        "text": {
          "status": "generated",
          "div": "<div xmlns=\"http://www.w3.org/1999/xhtml\"><p><b>Generated Narrative</b></p><p><b>identifier</b>: id: 7601000234438</p><p><b>name</b>: Familien Hausarzt </p></div>"
        },
        "identifier": [
          {
            "system": "urn:oid:2.51.1.3",
            "value": "7601000234438"
          }
        ],
        "name": [
          {
            "family": "Hausarzt",
            "given": [
              "Familien"
            ]
          }
        ]
      }
    },
    {
      "fullUrl": "http://test.fhir.ch/r4/Organization/Hausarzt",
      "resource": {
        "resourceType": "Organization",
        "id": "Hausarzt",
        "text": {
          "status": "generated",
          "div": "<div xmlns=\"http://www.w3.org/1999/xhtml\"><p><b>Generated Narrative</b></p><p><b>identifier</b>: id: 7601000234438</p><p><b>name</b>: Hausarzt</p><p><b>address</b>: Krankenstrasse 2 Zürich 8005 CH </p></div>"
        },
        "identifier": [
          {
            "system": "urn:oid:2.51.1.3",
            "value": "7601000234438"
          }
        ],
        "name": "Hausarzt",
        "address": [
          {
            "line": [
              "Krankenstrasse 2"
            ],
            "city": "Zürich",
            "postalCode": "8005",
            "country": "CH"
          }
        ]
      }
    },
    {
      "fullUrl": "http://test.fhir.ch/r4/Organization/Custodian",
      "resource": {
        "resourceType": "Organization",
        "id": "Custodian",
        "text": {
          "status": "generated",
          "div": "<div xmlns=\"http://www.w3.org/1999/xhtml\"><p><b>Generated Narrative</b></p><p><b>identifier</b>: id: 7601000234438</p><p><b>name</b>: Hausarzt</p></div>"
        },
        "identifier": [
          {
            "system": "urn:oid:2.51.1.3",
            "value": "7601000234438"
          }
        ],
        "name": "Hausarzt"
      }
    },
    {
      "fullUrl": "http://test.fhir.ch/r4/Patient/MonikaWegmuellerRecipient",
      "resource": {
        "resourceType": "Patient",
        "id": "MonikaWegmuellerRecipient",
        "text": {
          "status": "generated",
          "div": "<div xmlns=\"http://www.w3.org/1999/xhtml\"><p><b>Generated Narrative</b></p><p><b>name</b>: Monika Wegmüller </p><p><b>address</b>: Wiesenstr. 12 Zürich 8003 CH </p></div>"
        },
        "name": [
          {
            "family": "Wegmüller",
            "given": [
              "Monika"
            ]
          }
        ],
        "address": [
          {
            "line": [
              "Wiesenstr. 12"
            ],
            "city": "Zürich",
            "postalCode": "8003",
            "country": "CH"
          }
        ]
      }
    },
    {
      "fullUrl": "http://test.fhir.ch/r4/MedicationStatement/2-7-MedStatBeloczok",
      "resource": {
        "resourceType": "MedicationStatement",
        "id": "2-7-MedStatBeloczok",
        "text": {
          "status": "extensions",
          "div": "<div xmlns=\"http://www.w3.org/1999/xhtml\"><p><b>Generated Narrative</b></p><blockquote><p><b>CH EMED Extension Treatment Plan</b></p><h3>Urls</h3><table class=\"grid\"><tr><td>-</td></tr><tr><td>*</td></tr></table><p><b>value</b>: id: urn:uuid:5712fffe-20c6-11e6-b67b-9e71128cae77</p><h3>Urls</h3><table class=\"grid\"><tr><td>-</td></tr><tr><td>*</td></tr></table><p><b>value</b>: id: urn:uuid:5712fffe-20c6-11e6-b67b-9e71128cae77</p></blockquote><p><b>identifier</b>: id: urn:uuid:d0f885ca-afa6-4e7e-905d-f7698f9607aa</p><p><b>status</b>: completed</p><p><b>medication</b>: <a name=\"med\"> </a></p><blockquote><p><b>code</b>: <span title=\"Codes: {urn:oid:2.51.1.1 7680521101306}\">BELOC ZOK Ret Tabl 50 mg</span></p><p><b>form</b>: <span title=\"Codes: {urn:oid:0.4.0.127.0.16.1.1.2.1 10219000}\">Tablet</span></p><p><b>amount</b>: 30 Tablet (unit of presentation)/1 Package</p><h3>Ingredients</h3><table class=\"grid\"><tr><td>-</td><td><b>Item[x]</b></td><td><b>Strength</b></td></tr><tr><td>*</td><td><span title=\"Codes: {http://snomed.info/sct 372826007}\">Metoprolol</span></td><td>50 milligram/1 Tablet (unit of presentation)</td></tr></table></blockquote><p><b>subject</b>: <a href=\"#Patient_MonikaWegmueller\">See above (Patient/MonikaWegmueller)</a></p><p><b>reasonCode</b>: <span title=\"Codes: \">Bluthochdruck</span></p><p><b>note</b>: -</p><h3>Dosages</h3><table class=\"grid\"><tr><td>-</td></tr><tr><td>*</td></tr><tr><td>*</td></tr><tr><td>*</td></tr></table></div>"
        },
        "contained": [
          {
            "resourceType": "Medication",
            "id": "med",
            "code": {
              "coding": [
                {
                  "system": "urn:oid:2.51.1.1",
                  "code": "7680521101306",
                  "display": "BELOC ZOK Ret Tabl 50 mg 30 Stk"
                }
              ],
              "text": "BELOC ZOK Ret Tabl 50 mg"
            },
            "form": {
              "coding": [
                {
                  "system": "urn:oid:0.4.0.127.0.16.1.1.2.1",
                  "code": "10219000",
                  "display": "Tablet"
                }
              ]
            },
            "amount": {
              "numerator": {
                "value": 30,
                "unit": "Tablet (unit of presentation)",
                "system": "http://snomed.info/sct",
                "code": "732936001"
              },
              "denominator": {
                "value": 1,
                "unit": "Package",
                "system": "http://unitsofmeasure.org",
                "code": "{Package}"
              }
            },
            "ingredient": [
              {
                "itemCodeableConcept": {
                  "coding": [
                    {
                      "system": "http://snomed.info/sct",
                      "code": "372826007",
                      "display": "Metoprolol (substance)"
                    }
                  ],
                  "text": "Metoprolol"
                },
                "strength": {
                  "numerator": {
                    "value": 50,
                    "unit": "milligram",
                    "system": "http://unitsofmeasure.org",
                    "code": "mg"
                  },
                  "denominator": {
                    "value": 1,
                    "unit": "Tablet (unit of presentation)",
                    "system": "http://snomed.info/sct",
                    "code": "732936001"
                  }
                }
              }
            ]
          }
        ],
        "extension": [
          {
            "url": "http://fhir.ch/ig/ch-emed/StructureDefinition/ch-emed-ext-treatmentplan",
            "extension": [
              {
                "url": "id",
                "valueIdentifier": {
                  "system": "urn:ietf:rfc:3986",
                  "value": "urn:uuid:5712fffe-20c6-11e6-b67b-9e71128cae77"
                }
              },
              {
                "url": "externalDocumentId",
                "valueIdentifier": {
                  "system": "urn:ietf:rfc:3986",
                  "value": "urn:uuid:5712fffe-20c6-11e6-b67b-9e71128cae77"
                }
              }
            ]
          }
        ],
        "identifier": [
          {
            "system": "urn:ietf:rfc:3986",
            "value": "urn:uuid:d0f885ca-afa6-4e7e-905d-f7698f9607aa"
          }
        ],
        "status": "completed",
        "medicationReference": {
          "reference": "#med"
        },
        "subject": {
          "reference": "Patient/MonikaWegmueller"
        },
        "reasonCode": [
          {
            "text": "Bluthochdruck"
          }
        ],
        "note": [
          {
            "text": "-"
          }
        ],
        "dosage": [
          {
            "text": "Morgens 1 und abends 1/2 Tablette nehmen"
          },
          {
            "sequence": 1,
            "timing": {
              "repeat": {
                "boundsPeriod": {
                  "start": "2012-02-04"
                },
                "when": [
                  "MORN"
                ]
              }
            },
            "route": {
              "coding": [
                {
                  "system": "urn:oid:0.4.0.127.0.16.1.1.2.1",
                  "code": "20053000",
                  "display": "Oral use"
                }
              ]
            },
            "doseAndRate": [
              {
                "doseQuantity": {
                  "value": 1,
                  "unit": "Tablet (unit of presentation)",
                  "system": "http://snomed.info/sct",
                  "code": "732936001"
                }
              }
            ]
          },
          {
            "sequence": 2,
            "timing": {
              "repeat": {
                "boundsPeriod": {
                  "start": "2012-02-04"
                },
                "when": [
                  "EVE"
                ]
              }
            },
            "route": {
              "coding": [
                {
                  "system": "urn:oid:0.4.0.127.0.16.1.1.2.1",
                  "code": "20053000",
                  "display": "Oral use"
                }
              ]
            },
            "doseAndRate": [
              {
                "doseQuantity": {
                  "value": 0.5,
                  "unit": "Tablet (unit of presentation)",
                  "system": "http://snomed.info/sct",
                  "code": "732936001"
                }
              }
            ]
          }
        ]
      }
    },
    {
      "fullUrl": "http://test.fhir.ch/r4/MedicationStatement/2-7-MedStatNorvasc",
      "resource": {
        "resourceType": "MedicationStatement",
        "id": "2-7-MedStatNorvasc",
        "text": {
          "status": "extensions",
          "div": "<div xmlns=\"http://www.w3.org/1999/xhtml\"><p><b>Generated Narrative</b></p><blockquote><p><b>CH EMED Extension Treatment Plan</b></p><h3>Urls</h3><table class=\"grid\"><tr><td>-</td></tr><tr><td>*</td></tr></table><p><b>value</b>: id: urn:uuid:5712fffe-20c6-11e6-b67b-9e71128cae77</p><h3>Urls</h3><table class=\"grid\"><tr><td>-</td></tr><tr><td>*</td></tr></table><p><b>value</b>: id: urn:uuid:5712fffe-20c6-11e6-b67b-9e71128cae77</p></blockquote><p><b>identifier</b>: id: urn:uuid:534996fe-5e45-40ed-9388-06fa268e13d8</p><p><b>status</b>: completed</p><p><b>medication</b>: <a name=\"med\"> </a></p><blockquote><p><b>code</b>: <span title=\"Codes: {urn:oid:2.51.1.1 7680500440334}\">NORVASC Tabl 10 mg</span></p><p><b>form</b>: <span title=\"Codes: {urn:oid:0.4.0.127.0.16.1.1.2.1 10219000}\">Tablet</span></p><p><b>amount</b>: 30 Tablet (unit of presentation)/1 Package</p><h3>Ingredients</h3><table class=\"grid\"><tr><td>-</td><td><b>Item[x]</b></td><td><b>Strength</b></td></tr><tr><td>*</td><td><span title=\"Codes: {http://snomed.info/sct 386864001}\">Amlodipine</span></td><td>10 milligram/1 Tablet (unit of presentation)</td></tr></table></blockquote><p><b>subject</b>: <a href=\"#Patient_MonikaWegmueller\">See above (Patient/MonikaWegmueller)</a></p><p><b>reasonCode</b>: <span title=\"Codes: \">Bluthochdruck</span></p><p><b>note</b>: -</p><h3>Dosages</h3><table class=\"grid\"><tr><td>-</td></tr><tr><td>*</td></tr><tr><td>*</td></tr></table></div>"
        },
        "contained": [
          {
            "resourceType": "Medication",
            "id": "med",
            "code": {
              "coding": [
                {
                  "system": "urn:oid:2.51.1.1",
                  "code": "7680500440334",
                  "display": "NORVASC Tabl 10 mg"
                }
              ],
              "text": "NORVASC Tabl 10 mg"
            },
            "form": {
              "coding": [
                {
                  "system": "urn:oid:0.4.0.127.0.16.1.1.2.1",
                  "code": "10219000",
                  "display": "Tablet"
                }
              ]
            },
            "amount": {
              "numerator": {
                "value": 30,
                "unit": "Tablet (unit of presentation)",
                "system": "http://snomed.info/sct",
                "code": "732936001"
              },
              "denominator": {
                "value": 1,
                "unit": "Package",
                "system": "http://unitsofmeasure.org",
                "code": "{Package}"
              }
            },
            "ingredient": [
              {
                "itemCodeableConcept": {
                  "coding": [
                    {
                      "system": "http://snomed.info/sct",
                      "code": "386864001",
                      "display": "Amlodipine (substance)"
                    }
                  ],
                  "text": "Amlodipine"
                },
                "strength": {
                  "numerator": {
                    "value": 10,
                    "unit": "milligram",
                    "system": "http://unitsofmeasure.org",
                    "code": "mg"
                  },
                  "denominator": {
                    "value": 1,
                    "unit": "Tablet (unit of presentation)",
                    "system": "http://snomed.info/sct",
                    "code": "732936001"
                  }
                }
              }
            ]
          }
        ],
        "extension": [
          {
            "url": "http://fhir.ch/ig/ch-emed/StructureDefinition/ch-emed-ext-treatmentplan",
            "extension": [
              {
                "url": "id",
                "valueIdentifier": {
                  "system": "urn:ietf:rfc:3986",
                  "value": "urn:uuid:5712fffe-20c6-11e6-b67b-9e71128cae77"
                }
              },
              {
                "url": "externalDocumentId",
                "valueIdentifier": {
                  "system": "urn:ietf:rfc:3986",
                  "value": "urn:uuid:5712fffe-20c6-11e6-b67b-9e71128cae77"
                }
              }
            ]
          }
        ],
        "identifier": [
          {
            "system": "urn:ietf:rfc:3986",
            "value": "urn:uuid:534996fe-5e45-40ed-9388-06fa268e13d8"
          }
        ],
        "status": "completed",
        "medicationReference": {
          "reference": "#med"
        },
        "subject": {
          "reference": "Patient/MonikaWegmueller"
        },
        "reasonCode": [
          {
            "text": "Bluthochdruck"
          }
        ],
        "note": [
          {
            "text": "-"
          }
        ],
        "dosage": [
          {
            "timing": {
              "repeat": {
                "boundsPeriod": {
                  "start": "2012-02-04"
                },
                "when": [
                  "MORN",
                  "EVE"
                ]
              }
            },
            "route": {
              "coding": [
                {
                  "system": "urn:oid:0.4.0.127.0.16.1.1.2.1",
                  "code": "20053000",
                  "display": "Oral use"
                }
              ]
            },
            "doseAndRate": [
              {
                "doseQuantity": {
                  "value": 1,
                  "unit": "Tablet (unit of presentation)",
                  "system": "http://snomed.info/sct",
                  "code": "732936001"
                }
              }
            ]
          },
          {
            "text": "Morgens und abends je 1 Tablette nehmen"
          }
        ]
      }
    },
    {
      "fullUrl": "http://test.fhir.ch/r4/Binary/2-7-pdf",
      "resource": {
        "resourceType": "Binary",
        "id": "2-7-pdf",
        "language": "de-CH",
        "contentType": "application/pdf",
        "data": ""
      }
    }
  ]
}