<?xml version="1.0" encoding="UTF-8"?>

<Bundle xmlns="http://hl7.org/fhir">
  <id value="CdaContainingOriginalRepresentationAsPdfA"/>
  <identifier>
    <system value="urn:ietf:rfc:3986"/>
    <value value="urn:uuid:11778932-3d19-486b-afe6-e32a1165c978"/>
  </identifier>
  <type value="document"/>
  <timestamp value="2018-02-06T16:57:00+01:00"/>
  <entry>
    <fullUrl value="urn:uuid:991633bb-f27c-484c-9822-334f1b635e75"/>
    <resource>
      <Composition>
        <id value="991633bb-f27c-484c-9822-334f1b635e75"/>
        <language value="en-US"/>
        <text>
          <status value="extensions"/><div xmlns="http://www.w3.org/1999/xhtml" xml:lang="en-US" lang="en-US"><p><b>Generated Narrative</b></p><p><b>EPR Version Number</b>: 1</p><p><b>EPR Information Recipient</b>: <a href="#Organization_e118f753-caaa-4696-991a-b20a796ce782">See above (Organization/e118f753-caaa-4696-991a-b20a796ce782)</a></p><blockquote><p><b>EPR Data Enterer</b></p><h3>Urls</h3><table class="grid"><tr><td>-</td></tr><tr><td>*</td></tr></table><p><b>value</b>: <a href="#PractitionerRole_cac33923-b081-4060-bd57-46ee35dd5a33">See above (PractitionerRole/cac33923-b081-4060-bd57-46ee35dd5a33)</a></p><h3>Urls</h3><table class="grid"><tr><td>-</td></tr><tr><td>*</td></tr></table><p><b>value</b>: 3 Oct 2017, 14:15:00</p></blockquote><p><b>identifier</b>: id: urn:uuid:11778932-3d19-486b-afe6-e32a1165c978</p><p><b>status</b>: final</p><p><b>type</b>: <span title="Codes: {http://loinc.org 28616-1}, {http://snomed.info/sct 371535009}">Physician Transfer note</span></p><p><b>date</b>: 6 Feb 2018, 16:57:00</p><p><b>author</b>: </p><ul><li><a href="#Practitioner_5e5d0948-61b0-4555-9a8f-40bacdc0cb8c">See above (Practitioner/5e5d0948-61b0-4555-9a8f-40bacdc0cb8c)</a></li><li><a href="#Organization_74f3642a-835f-407a-a427-5e403fe8b0b3">See above (Organization/74f3642a-835f-407a-a427-5e403fe8b0b3)</a></li></ul><p><b>title</b>: Transfer note for radiological diagnostics</p><p><b>confidentiality</b>: N</p><h3>Attesters</h3><table class="grid"><tr><td>-</td><td><b>Mode</b></td><td><b>Time</b></td><td><b>Party</b></td></tr><tr><td>*</td><td>legal</td><td>2017-10-03</td><td><a href="#Practitioner_7347db10-d4b3-4cc4-be86-dc2224fdf030">See above (Practitioner/7347db10-d4b3-4cc4-be86-dc2224fdf030)</a></td></tr></table><p><b>custodian</b>: <a href="#Organization_28c3d63b-47d4-4f5f-9bbe-afd3a19cefc2">See above (Organization/28c3d63b-47d4-4f5f-9bbe-afd3a19cefc2)</a></p></div>
        </text>
        <extension url="http://fhir.ch/ig/ch-core/StructureDefinition/ch-ext-epr-versionnumber">
          <valueUnsignedInt value="1"/>
        </extension>
        <extension url="http://fhir.ch/ig/ch-core/StructureDefinition/ch-ext-epr-informationrecipient">
          <valueReference>
            <reference value="Organization/e118f753-caaa-4696-991a-b20a796ce782"/>
          </valueReference>
        </extension>
        <extension url="http://fhir.ch/ig/ch-core/StructureDefinition/ch-ext-epr-dataenterer">
          <extension url="enterer">
            <valueReference>
              <reference value="PractitionerRole/cac33923-b081-4060-bd57-46ee35dd5a33"/>
            </valueReference>
          </extension>
          <extension url="http://fhir.ch/ig/ch-core/StructureDefinition/ch-ext-epr-time">
            <valueDateTime value="2017-10-03T13:15:00+01:00"/>
          </extension>
        </extension>
        <identifier>
          <system value="urn:ietf:rfc:3986"/>
          <value value="urn:uuid:11778932-3d19-486b-afe6-e32a1165c978"/>
        </identifier>
        <status value="final"/>
        <type>
          <coding>
            <system value="http://loinc.org"/>
            <code value="28616-1"/>
            <display value="Physician Transfer note"/>
          </coding>
          <coding>
            <system value="http://snomed.info/sct"/>
            <code value="371535009"/>
            <display value="Transfer summary report"/>
          </coding>
        </type>
        <subject>
          <reference value="Patient/d80b05d6-2b3b-443e-9797-e4ac8615f7ce"/>
        </subject>
        <date value="2018-02-06T16:57:00+01:00"/>
        <author>
          <extension url="http://fhir.ch/ig/ch-core/StructureDefinition/ch-ext-epr-time">
            <valueDateTime value="2017-10-03T16:09:00+01:00"/>
          </extension>
          <reference value="Practitioner/5e5d0948-61b0-4555-9a8f-40bacdc0cb8c"/>
        </author>
        <author>
          <reference value="Organization/74f3642a-835f-407a-a427-5e403fe8b0b3"/>
        </author>
        <title value="Transfer note for radiological diagnostics"/>
        <confidentiality value="N">
          <extension url="http://fhir.ch/ig/ch-core/StructureDefinition/ch-ext-epr-confidentialitycode">
            <valueCodeableConcept>
              <coding>
                <system value="http://snomed.info/sct"/>
                <code value="17621005"/>
                <display value="Normally accessible"/>
              </coding>
            </valueCodeableConcept>
          </extension>
        </confidentiality>
        <attester>
          <mode value="legal"/>
          <time value="2017-10-03"/>
          <party>
            <reference value="Practitioner/7347db10-d4b3-4cc4-be86-dc2224fdf030"/>
          </party>
        </attester>
        <custodian>
          <reference value="Organization/28c3d63b-47d4-4f5f-9bbe-afd3a19cefc2"/>
        </custodian>
        <section>
          <title value="Ordered diagnostics"/>
          <text>
            <status value="generated"/><div xmlns="http://www.w3.org/1999/xhtml"><span>
							The patient is awaiting your invitation.<br/></span><span style="font-style: italic">
							Specification of the desired examination<br/></span></div>
          </text>
        </section>
        <section>
          <title value="Urgency / preferred date"/>
          <text>
            <status value="generated"/><div xmlns="http://www.w3.org/1999/xhtml"><span style="font-style: italic">
							Information on the preferred date
						</span></div>
          </text>
        </section>
        <section>
          <title value="Question"/>
          <text>
            <status value="generated"/><div xmlns="http://www.w3.org/1999/xhtml"><span style="font-style: italic">
							Reason for the examination and information on the current conditions
						</span></div>
          </text>
        </section>
        <section>
          <title value="Information about the patient"/>
          <text>
            <status value="generated"/><div xmlns="http://www.w3.org/1999/xhtml"><span style="font-style: italic">
							Successful preliminary examinations<br/>
							Diagnostic copy - receiver<br/></span></div>
          </text>
        </section>
        <section>
          <title value="Clinical information"/>
          <text>
            <status value="generated"/><div xmlns="http://www.w3.org/1999/xhtml"><span style="font-style: italic">
							Description of the current conditions<br/>
							Pregnancy (yes / no)<br/>
							Laboratory results (Quick / Tc, creatinine)<br/>
							Known allergies<br/></span></div>
          </text>
        </section>
        <section>
          <title value="Original representation"/>
          <code>
            <coding>
              <system value="http://loinc.org"/>
              <code value="55108-5"/>
              <display value="Clinical presentation"/>
            </coding>
          </code>
          <text>
            <status value="generated"/><div xmlns="http://www.w3.org/1999/xhtml">
						Representation of the original view:
						<img src="pdf1"/></div>
          </text>
          <entry>
            <extension url="http://hl7.org/fhir/StructureDefinition/narrativeLink">
              <valueUrl value="pdf1"/>
            </extension>
            <reference value="Binary/8f304c87-ed20-4e9a-b928-db4116eb6594"/>
          </entry>
        </section>
      </Composition>
    </resource>
  </entry>
  <entry>
    <fullUrl value="urn:uuid:d80b05d6-2b3b-443e-9797-e4ac8615f7ce"/>
    <resource>
      <Patient>
        <id value="d80b05d6-2b3b-443e-9797-e4ac8615f7ce"/>
        <text>
          <status value="generated"/><div xmlns="http://www.w3.org/1999/xhtml"><p><b>Generated Narrative</b></p><p><b>identifier</b>: Medical record number: 8733</p><p><b>name</b>: John DOE (OFFICIAL)</p><p><b>telecom</b>: <a href="tel:+41.32.685.12.34">+41.32.685.12.34</a>, <a href="tel:+41.32.123.77.88">+41.32.123.77.88</a>, <a href="mailto:john.doe@sampledomain.ch">john.doe@sampledomain.ch</a></p><p><b>gender</b>: male</p><p><b>birthDate</b>: 1948-06-11</p><p><b>address</b>: suffering avenue 10 Specimentown 9876 CH (HOME)</p><p><b>managingOrganization</b>: <a href="#Organization_c1a98d0c-802b-4cce-b922-93eee325cc14">See above (Organization/c1a98d0c-802b-4cce-b922-93eee325cc14)</a></p></div>
        </text>
        <identifier>
          <type>
            <coding>
              <system value="http://terminology.hl7.org/CodeSystem/v2-0203"/>
              <code value="MR"/>
            </coding>
          </type>
          <system value="urn:oid:2.999"/>
          <value value="8733"/>
        </identifier>
        <name>
          <use value="official"/>
          <family value="DOE"/>
          <given value="John"/>
        </name>
        <telecom>
          <system value="phone"/>
          <value value="+41.32.685.12.34"/>
          <use value="home"/>
        </telecom>
        <telecom>
          <system value="phone"/>
          <value value="+41.32.123.77.88"/>
          <use value="work"/>
        </telecom>
        <telecom>
          <system value="email"/>
          <value value="john.doe@sampledomain.ch"/>
          <use value="work"/>
        </telecom>
        <gender value="male"/>
        <birthDate value="1948-06-11"/>
        <address>
          <use value="home"/>
          <line value="suffering avenue"/>
          <line value="10"/>
          <city value="Specimentown"/>
          <postalCode value="9876"/>
          <country value="CH"/>
        </address>
        <managingOrganization>
          <reference value="Organization/c1a98d0c-802b-4cce-b922-93eee325cc14"/>
        </managingOrganization>
      </Patient>
    </resource>
  </entry>
  <entry>
    <fullUrl value="urn:uuid:c1a98d0c-802b-4cce-b922-93eee325cc14"/>
    <resource>
      <Organization>
        <id value="c1a98d0c-802b-4cce-b922-93eee325cc14"/>
        <text>
          <status value="generated"/><div xmlns="http://www.w3.org/1999/xhtml"><p><b>Generated Narrative</b></p><p><b>identifier</b>: id: 7608888888888</p><p><b>name</b>: Dr. med. Always Ready, Group practice CH</p></div>
        </text>
        <identifier>
          <system value="urn:oid:2.51.1.3"/>
          <value value="7608888888888"/>
        </identifier>
        <name value="Dr. med. Always Ready, Group practice CH"/>
      </Organization>
    </resource>
  </entry>
  <entry>
    <fullUrl value="urn:uuid:5e5d0948-61b0-4555-9a8f-40bacdc0cb8c"/>
    <resource>
      <Practitioner>
        <id value="5e5d0948-61b0-4555-9a8f-40bacdc0cb8c"/>
        <text>
          <status value="generated"/><div xmlns="http://www.w3.org/1999/xhtml"><p><b>Generated Narrative</b></p><p><b>identifier</b>: id: 7608888888888</p><p><b>name</b>: Always Ready (OFFICIAL)</p></div>
        </text>
        <identifier>
          <system value="urn:oid:2.51.1.3"/>
          <value value="7608888888888"/>
        </identifier>
        <name>
          <use value="official"/>
          <family value="Ready"/>
          <given value="Always"/>
          <prefix value="Dr. med."/>
          <suffix value="General practitioner"/>
        </name>
      </Practitioner>
    </resource>
  </entry>
  <entry>
    <fullUrl value="urn:uuid:74f3642a-835f-407a-a427-5e403fe8b0b3"/>
    <resource>
      <Organization>
        <id value="74f3642a-835f-407a-a427-5e403fe8b0b3"/>
        <text>
          <status value="generated"/><div xmlns="http://www.w3.org/1999/xhtml"><p><b>Generated Narrative</b></p><p><b>identifier</b>: id: 7609999999999</p><p><b>name</b>: Group practice CH</p><p><b>telecom</b>: <a href="tel:+41.32.234.55.66">+41.32.234.55.66</a>, fax: +41.32.234.66.77(WORK), <a href="mailto:ready@gruppenpraxis.ch">ready@gruppenpraxis.ch</a>, <a href="www.grouppractice.ch">www.grouppractice.ch</a></p><p><b>address</b>: doctors street 2 Samplecity 8888 CH (WORK)</p></div>
        </text>
        <identifier>
          <system value="urn:oid:2.51.1.3"/>
          <value value="7609999999999"/>
        </identifier>
        <name value="Group practice CH"/>
        <telecom>
          <system value="phone"/>
          <value value="+41.32.234.55.66"/>
          <use value="work"/>
        </telecom>
        <telecom>
          <system value="fax"/>
          <value value="+41.32.234.66.77"/>
          <use value="work"/>
        </telecom>
        <telecom>
          <system value="email"/>
          <value value="ready@gruppenpraxis.ch"/>
          <use value="work"/>
        </telecom>
        <telecom>
          <system value="url"/>
          <value value="www.grouppractice.ch"/>
          <use value="work"/>
        </telecom>
        <address>
          <use value="work"/>
          <line value="doctors street"/>
          <line value="2"/>
          <city value="Samplecity"/>
          <postalCode value="8888"/>
          <country value="CH"/>
        </address>
      </Organization>
    </resource>
  </entry>
  <entry>
    <fullUrl value="urn:uuid:7347db10-d4b3-4cc4-be86-dc2224fdf030"/>
    <resource>
      <Practitioner>
        <id value="7347db10-d4b3-4cc4-be86-dc2224fdf030"/>
        <text>
          <status value="generated"/><div xmlns="http://www.w3.org/1999/xhtml"><p><b>Generated Narrative</b></p><p><b>identifier</b>: id: 7607777777777</p><p><b>name</b>: Always Ready (OFFICIAL)</p></div>
        </text>
        <identifier>
          <system value="urn:oid:2.51.1.3"/>
          <value value="7607777777777"/>
        </identifier>
        <name>
          <use value="official"/>
          <family value="Ready"/>
          <given value="Always"/>
          <prefix value="Dr. med."/>
          <suffix value="General practitioner"/>
        </name>
      </Practitioner>
    </resource>
  </entry>
  <entry>
    <fullUrl value="urn:uuid:28c3d63b-47d4-4f5f-9bbe-afd3a19cefc2"/>
    <resource>
      <Organization>
        <id value="28c3d63b-47d4-4f5f-9bbe-afd3a19cefc2"/>
        <text>
          <status value="generated"/><div xmlns="http://www.w3.org/1999/xhtml"><p><b>Generated Narrative</b></p><p><b>identifier</b>: id: 7608888888888</p><p><b>name</b>: Group practice CH, Dr. med. Always Ready, General practitioner</p><p><b>address</b>: Doctors street 2 Samplecity 8888 CH (WORK)</p></div>
        </text>
        <identifier>
          <system value="urn:oid:2.51.1.3"/>
          <value value="7608888888888"/>
        </identifier>
        <name value="Group practice CH, Dr. med. Always Ready, General practitioner"/>
        <address>
          <use value="work"/>
          <line value="Doctors street"/>
          <line value="2"/>
          <city value="Samplecity"/>
          <postalCode value="8888"/>
          <country value="CH"/>
        </address>
      </Organization>
    </resource>
  </entry>
  <entry>
    <fullUrl value="urn:uuid:e118f753-caaa-4696-991a-b20a796ce782"/>
    <resource>
      <Organization>
        <id value="e118f753-caaa-4696-991a-b20a796ce782"/>
        <text>
          <status value="generated"/><div xmlns="http://www.w3.org/1999/xhtml"><p><b>Generated Narrative</b></p><p><b>identifier</b>: id: 7603333333333</p><p><b>name</b>: RoDiag Radiology Institute</p><p><b>address</b>: Raystreet 1 Samplecity 8888 CH (WORK)</p></div>
        </text>
        <identifier>
        <!--  im CDA ist kein identifier vorhanden  -->
          <system value="urn:oid:2.51.1.3"/>
          <value value="7603333333333"/>
        </identifier>
        <name value="RoDiag Radiology Institute"/>
        <address>
          <use value="work"/>
          <line value="Raystreet"/>
          <line value="1"/>
          <city value="Samplecity"/>
          <postalCode value="8888"/>
          <country value="CH"/>
        </address>
      </Organization>
    </resource>
  </entry>
  <entry>
    <fullUrl value="urn:uuid:cac33923-b081-4060-bd57-46ee35dd5a33"/>
    <resource>
      <PractitionerRole>
        <id value="cac33923-b081-4060-bd57-46ee35dd5a33"/>
        <text>
          <status value="generated"/><div xmlns="http://www.w3.org/1999/xhtml"><p><b>Generated Narrative</b></p><p><b>practitioner</b>: <a href="#Practitioner_urn:uuid:be3ba855-6bef-4c36-92a1-8b76fefd3629">See above (Practitioner/urn:uuid:be3ba855-6bef-4c36-92a1-8b76fefd3629)</a></p></div>
        </text>
        <practitioner>
          <reference value="urn:uuid:be3ba855-6bef-4c36-92a1-8b76fefd3629"/>
          <type value="Practitioner"/>
        </practitioner>
      </PractitionerRole>
    </resource>
  </entry>
  <entry>
    <fullUrl value="urn:uuid:be3ba855-6bef-4c36-92a1-8b76fefd3629"/>
    <resource>
      <Practitioner>
        <id value="urn:uuid:be3ba855-6bef-4c36-92a1-8b76fefd3629"/>
        <text>
          <status value="generated"/><div xmlns="http://www.w3.org/1999/xhtml"><p><b>Generated Narrative</b></p><p><b>identifier</b>: id: 0812763</p><p><b>name</b>: Stabilo Kristin (OFFICIAL)</p></div>
        </text>
        <identifier>
          <system value="urn:oid:2.999"/>
          <value value="0812763"/>
        </identifier>
        <name>
          <use value="official"/>
          <family value="Kristin"/>
          <given value="Stabilo"/>
        </name>
      </Practitioner>
    </resource>
  </entry>
  <entry>
    <fullUrl value="urn:uuid:8f304c87-ed20-4e9a-b928-db4116eb6594"/>
    <resource>
      <Binary>
        <id value="8f304c87-ed20-4e9a-b928-db4116eb6594"/>
        <language value="en-US"/>
        <contentType value="application/pdf"/>
        <data value="JVBERi0xLjQNJf////8KNDQgMCBvYmoNWyAzMiAzMiAyNTAgNDQgNDQgMjUwIDQ1IDQ1IDMzMyA0&#xA;&#x9;&#x9;&#x9;&#x9;&#x9;&#x9;&#x9;&#x9;NiA0NiAyNTAgNDcgNDcgMjc4IDQ4IDQ4IDUwMCA0OSA0OSA1MDAgNTAgNTAgNTAwIDU0IDU0IDUw&#xA;&#x9;&#x9;&#x9;&#x9;&#x9;&#x9;&#x9;&#x9;MCA1NSA1NSA1MDAgNTYgNTYgNTAwIDU4IDU4IDI3OCA2NiA2NiA2NjcgNjcgNjcgNjY3IDcyIDcy&#xA;&#x9;&#x9;&#x9;&#x9;&#x9;&#x9;&#x9;&#x9;IDcyMiA3NiA3NiA2MTEgODAgODAgNTU2IDg0IDg0IDYxMSA5NyA5NyA0NDQgOTkgOTkgNDQ0IDEw&#xA;&#x9;&#x9;&#x9;&#x9;&#x9;&#x9;&#x9;&#x9;MCAxMDAgNTAwIDEwMSAxMDEgNDQ0IDEwMiAxMDIgMzMzIDEwMyAxMDMgNTAwIDEwNCAxMDQgNTAw&#xA;&#x9;&#x9;&#x9;&#x9;&#x9;&#x9;&#x9;&#x9;IDEwNSAxMDUgMjc4IDEwNiAxMDYgMjc4IDEwNyAxMDcgNTAwIDEwOCAxMDggMjc4IDExMCAxMTAg&#xA;&#x9;&#x9;&#x9;&#x9;&#x9;&#x9;&#x9;&#x9;NTAwIDExMSAxMTEgNTAwIDExMiAxMTIgNTAwIDExNCAxMTQgMzMzIDExNSAxMTUgMzg5IDExNiAx&#xA;&#x9;&#x9;&#x9;&#x9;&#x9;&#x9;&#x9;&#x9;MTYgMjc4IDExNyAxMTcgNTAwIDExOCAxMTggNTAwXQ1lbmRvYmoNNDMgMCBvYmoNWyAzMiAzMiAz&#xA;&#x9;&#x9;&#x9;&#x9;&#x9;&#x9;&#x9;&#x9;NTIgNDAgNDAgNDU0IDQxIDQxIDQ1NCA0NCA0NCAzNjQgNDUgNDUgNDU0IDQ3IDQ3IDQ1NCA2OCA2&#xA;&#x9;&#x9;&#x9;&#x9;&#x9;&#x9;&#x9;&#x9;OCA3NjYgNzMgNzMgNDIxIDc1IDc1IDY5MyA3NiA3NiA1NTcgODAgODAgNjAzIDgxIDgxIDc4NyA4&#xA;&#x9;&#x9;&#x9;&#x9;&#x9;&#x9;&#x9;&#x9;MiA4MiA2OTUgODMgODMgNjg0IDg0IDg0IDYxNiA5NyA5NyA2MDEgOTggOTggNjIzIDk5IDk5IDUy&#xA;&#x9;&#x9;&#x9;&#x9;&#x9;&#x9;&#x9;&#x9;MSAxMDAgMTAwIDYyMyAxMDEgMTAxIDU5NiAxMDIgMTAyIDM1MiAxMDMgMTAzIDYyMiAxMDQgMTA0&#xA;&#x9;&#x9;&#x9;&#x9;&#x9;&#x9;&#x9;&#x9;IDYzMyAxMDUgMTA1IDI3NCAxMDcgMTA3IDU4NyAxMDggMTA4IDI3NCAxMDkgMTA5IDk3MyAxMTAg&#xA;&#x9;&#x9;&#x9;&#x9;&#x9;&#x9;&#x9;&#x9;MTEwIDYzMyAxMTEgMTExIDYwNyAxMTIgMTEyIDYyMyAxMTQgMTE0IDQyNyAxMTUgMTE1IDUyMSAx&#xA;&#x9;&#x9;&#x9;&#x9;&#x9;&#x9;&#x9;&#x9;MTYgMTE2IDM5NCAxMTcgMTE3IDYzMyAxMTggMTE4IDU5MSAxMTkgMTE5IDgxOCAxMjAgMTIwIDU5&#xA;&#x9;&#x9;&#x9;&#x9;&#x9;&#x9;&#x9;&#x9;MiAxMjEgMTIxIDU5MV0NZW5kb2JqDTQyIDAgb2JqDVsgMzIgMzIgMzUyIDQzIDQzIDgxOCA0NCA0&#xA;&#x9;&#x9;&#x9;&#x9;&#x9;&#x9;&#x9;&#x9;NCAzNjQgNDYgNDYgMzY0IDQ4IDQ4IDYzNiA0OSA0OSA2MzYgNTAgNTAgNjM2IDUxIDUxIDYzNiA1&#xA;&#x9;&#x9;&#x9;&#x9;&#x9;&#x9;&#x9;&#x9;MiA1MiA2MzYgNTMgNTMgNjM2IDU0IDU0IDYzNiA1NSA1NSA2MzYgNTYgNTYgNjM2IDU3IDU3IDYz&#xA;&#x9;&#x9;&#x9;&#x9;&#x9;&#x9;&#x9;&#x9;NiA1OCA1OCA0NTQgNjQgNjQgMTAwMCA2NSA2NSA2ODQgNjYgNjYgNjg2IDY3IDY3IDY5OCA2OCA2&#xA;&#x9;&#x9;&#x9;&#x9;&#x9;&#x9;&#x9;&#x9;OCA3NzEgNzAgNzAgNTc1IDcxIDcxIDc3NSA3MiA3MiA3NTEgNzMgNzMgNDIxIDc0IDc0IDQ1NSA3&#xA;&#x9;&#x9;&#x9;&#x9;&#x9;&#x9;&#x9;&#x9;NSA3NSA2OTMgNzcgNzcgODQzIDc5IDc5IDc4NyA4MCA4MCA2MDMgODIgODIgNjk1IDgzIDgzIDY4&#xA;&#x9;&#x9;&#x9;&#x9;&#x9;&#x9;&#x9;&#x9;NCA4NCA4NCA2MTYgODcgODcgOTg5IDk3IDk3IDYwMSA5OCA5OCA2MjMgOTkgOTkgNTIxIDEwMCAx&#xA;&#x9;&#x9;&#x9;&#x9;&#x9;&#x9;&#x9;&#x9;MDAgNjIzIDEwMSAxMDEgNTk2IDEwMiAxMDIgMzUyIDEwMyAxMDMgNjIzIDEwNCAxMDQgNjMzIDEw&#xA;&#x9;&#x9;&#x9;&#x9;&#x9;&#x9;&#x9;&#x9;NSAxMDUgMjc0IDEwNiAxMDYgMzQ0IDEwOCAxMDggMjc0IDEwOSAxMDkgOTczIDExMCAxMTAgNjMz&#xA;&#x9;&#x9;&#x9;&#x9;&#x9;&#x9;&#x9;&#x9;IDExMSAxMTEgNjA3IDExMiAxMTIgNjIzIDExNCAxMTQgNDI3IDExNSAxMTUgNTIxIDExNiAxMTYg&#xA;&#x9;&#x9;&#x9;&#x9;&#x9;&#x9;&#x9;&#x9;Mzk0IDExNyAxMTcgNjMzIDExOCAxMTggNTkyIDExOSAxMTkgODE4IDEyMCAxMjAgNTkyIDEyMSAx&#xA;&#x9;&#x9;&#x9;&#x9;&#x9;&#x9;&#x9;&#x9;MjEgNTkyXQ1lbmRvYmoNNDEgMCBvYmoNWyAzMiAzMiAzNDIgNDcgNDcgNjg5IDU4IDU4IDQwMiA2&#xA;&#x9;&#x9;&#x9;&#x9;&#x9;&#x9;&#x9;&#x9;NSA2NSA3NzYgNjcgNjcgNzI0IDY4IDY4IDgzMCA2OSA2OSA2ODMgNzMgNzMgNTQ2IDc0IDc0IDU1&#xA;&#x9;&#x9;&#x9;&#x9;&#x9;&#x9;&#x9;&#x9;NSA3NiA3NiA2MzcgNzkgNzkgODUwIDgwIDgwIDczMyA4MSA4MSA4NTAgODQgODQgNjgyIDg1IDg1&#xA;&#x9;&#x9;&#x9;&#x9;&#x9;&#x9;&#x9;&#x9;IDgxMiA5NyA5NyA2NjggOTggOTggNjk5IDk5IDk5IDU4OCAxMDAgMTAwIDY5OSAxMDEgMTAxIDY2&#xA;&#x9;&#x9;&#x9;&#x9;&#x9;&#x9;&#x9;&#x9;NCAxMDIgMTAyIDQyMiAxMDMgMTAzIDY5OSAxMDQgMTA0IDcxMiAxMDUgMTA1IDM0MiAxMDggMTA4&#xA;&#x9;&#x9;&#x9;&#x9;&#x9;&#x9;&#x9;&#x9;IDM0MiAxMDkgMTA5IDEwNTggMTEwIDExMCA3MTIgMTExIDExMSA2ODcgMTEyIDExMiA2OTkgMTE0&#xA;&#x9;&#x9;&#x9;&#x9;&#x9;&#x9;&#x9;&#x9;IDExNCA0OTcgMTE1IDExNSA1OTMgMTE2IDExNiA0NTYgMTE3IDExNyA3MTIgMTE4IDExOCA2NTAg&#xA;&#x9;&#x9;&#x9;&#x9;&#x9;&#x9;&#x9;&#x9;MTIxIDEyMSA2NTFdDWVuZG9iag00MCAwIG9iag08PC9EZWNvZGVQYXJtc1sgbnVsbF0vRmlsdGVy&#xA;&#x9;&#x9;&#x9;&#x9;&#x9;&#x9;&#x9;&#x9;Wy9GbGF0ZURlY29kZV0vTGVuZ3RoIDIzMD4+c3RyZWFtCnjabFBLasQwDN3nFFpOF4Ob6XYYKCmF&#xA;&#x9;&#x9;&#x9;&#x9;&#x9;&#x9;&#x9;&#x9;LPqhaQ/gWEowNLJQnEVuX9vJTKFUCxvpfXiSadqnln0E867BdRRh8IxKc1jUEfQ0eq7qE6B3ce/K&#xA;&#x9;&#x9;&#x9;&#x9;&#x9;&#x9;&#x9;&#x9;6yYrlUnibp0jTS0PAR42Fi6yM81H+uaoKxweMfR0B0hDZd4UST2PcGiROPq47kC3iHzTlGZQlwkx&#xA;&#x9;&#x9;&#x9;&#x9;&#x9;&#x9;&#x9;&#x9;bkjzYuXVTgSmGB2vwuNX0/0yPlchOJW+3iK4gDSLdaSWR6rO96kucH5Odcnuf/Bd1Q//0GHrsuqK&#xA;&#x9;&#x9;&#x9;&#x9;&#x9;&#x9;&#x9;&#x9;Z4N8h1s6t6imYOUMJVHO4plu95QgWVUW+wEAAP//AwDV333ZDWVuZHN0cmVhbQ1lbmRvYmoNMzkg&#xA;&#x9;&#x9;&#x9;&#x9;&#x9;&#x9;&#x9;&#x9;MCBvYmoNPDwvTGVuZ3RoIDIyNjYvU3VidHlwZS9YTUwvVHlwZS9NZXRhZGF0YT4+c3RyZWFtCjw/&#xA;&#x9;&#x9;&#x9;&#x9;&#x9;&#x9;&#x9;&#x9;eHBhY2tldCBiZWdpbj0n77u/JyBpZD0nVzVNME1wQ2VoaUh6cmVTek5UY3prYzlkJz8+Cjx4Onht&#xA;&#x9;&#x9;&#x9;&#x9;&#x9;&#x9;&#x9;&#x9;cG1ldGEgeDp4bXB0az0iMy4xLTcwMSIgeG1sbnM6eD0iYWRvYmU6bnM6bWV0YS8iPgogIDxyZGY6&#xA;&#x9;&#x9;&#x9;&#x9;&#x9;&#x9;&#x9;&#x9;UkRGIHhtbG5zOnJkZj0iaHR0cDovL3d3dy53My5vcmcvMTk5OS8wMi8yMi1yZGYtc3ludGF4LW5z&#xA;&#x9;&#x9;&#x9;&#x9;&#x9;&#x9;&#x9;&#x9;IyI+CiAgICA8cmRmOkRlc2NyaXB0aW9uIHJkZjphYm91dD0iIiB4bWxuczp4bXA9Imh0dHA6Ly9u&#xA;&#x9;&#x9;&#x9;&#x9;&#x9;&#x9;&#x9;&#x9;cy5hZG9iZS5jb20veGFwLzEuMC8iPgogICAgICA8eG1wOkNyZWF0ZURhdGU+MjAxOC0wMi0xMlQx&#xA;&#x9;&#x9;&#x9;&#x9;&#x9;&#x9;&#x9;&#x9;MTowNjoyMVo8L3htcDpDcmVhdGVEYXRlPgogICAgICA8eG1wOkNyZWF0b3JUb29sPkZpcmVmb3g8&#xA;&#x9;&#x9;&#x9;&#x9;&#x9;&#x9;&#x9;&#x9;L3htcDpDcmVhdG9yVG9vbD4KICAgICAgPHhtcDpNb2RpZnlEYXRlPjIwMTgtMDItMTJUMTE6MDY6&#xA;&#x9;&#x9;&#x9;&#x9;&#x9;&#x9;&#x9;&#x9;MjNaPC94bXA6TW9kaWZ5RGF0ZT4KICAgICAgPHhtcDpNZXRhZGF0YURhdGU+MjAxOC0wMi0xMlQx&#xA;&#x9;&#x9;&#x9;&#x9;&#x9;&#x9;&#x9;&#x9;MTowNjoyM1o8L3htcDpNZXRhZGF0YURhdGU+CiAgICA8L3JkZjpEZXNjcmlwdGlvbj4KICAgIDxy&#xA;&#x9;&#x9;&#x9;&#x9;&#x9;&#x9;&#x9;&#x9;ZGY6RGVzY3JpcHRpb24gcmRmOmFib3V0PSIiIHhtbG5zOmRjPSJodHRwOi8vcHVybC5vcmcvZGMv&#xA;&#x9;&#x9;&#x9;&#x9;&#x9;&#x9;&#x9;&#x9;ZWxlbWVudHMvMS4xLyI+CiAgICAgIDxkYzpmb3JtYXQ+YXBwbGljYXRpb24vcGRmPC9kYzpmb3Jt&#xA;&#x9;&#x9;&#x9;&#x9;&#x9;&#x9;&#x9;&#x9;YXQ+CiAgICA8L3JkZjpEZXNjcmlwdGlvbj4KICAgIDxyZGY6RGVzY3JpcHRpb24gcmRmOmFib3V0&#xA;&#x9;&#x9;&#x9;&#x9;&#x9;&#x9;&#x9;&#x9;PSIiIHhtbG5zOnBkZj0iaHR0cDovL25zLmFkb2JlLmNvbS9wZGYvMS4zLyI+CiAgICAgIDxwZGY6&#xA;&#x9;&#x9;&#x9;&#x9;&#x9;&#x9;&#x9;&#x9;UHJvZHVjZXI+U29saWQgUERGIENyZWF0b3IgICg5LjEuMzA1MC4xKTwvcGRmOlByb2R1Y2VyPgog&#xA;&#x9;&#x9;&#x9;&#x9;&#x9;&#x9;&#x9;&#x9;ICAgPC9yZGY6RGVzY3JpcHRpb24+CiAgICA8cmRmOkRlc2NyaXB0aW9uIHJkZjphYm91dD0iIiB4&#xA;&#x9;&#x9;&#x9;&#x9;&#x9;&#x9;&#x9;&#x9;bWxuczp4bXBNTT0iaHR0cDovL25zLmFkb2JlLmNvbS94YXAvMS4wL21tLyI+CiAgICAgIDx4bXBN&#xA;&#x9;&#x9;&#x9;&#x9;&#x9;&#x9;&#x9;&#x9;TTpEb2N1bWVudElEPnV1aWQ6ZjZlNGRiMjAtNWMwZS00YTBhLWE2ZTMtMjQzNzVhZTcwY2VjPC94&#xA;&#x9;&#x9;&#x9;&#x9;&#x9;&#x9;&#x9;&#x9;bXBNTTpEb2N1bWVudElEPgogICAgPC9yZGY6RGVzY3JpcHRpb24+CiAgICA8cmRmOkRlc2NyaXB0&#xA;&#x9;&#x9;&#x9;&#x9;&#x9;&#x9;&#x9;&#x9;aW9uIHJkZjphYm91dD0iIiB4bWxuczpwZGZhaWQ9Imh0dHA6Ly93d3cuYWlpbS5vcmcvcGRmYS9u&#xA;&#x9;&#x9;&#x9;&#x9;&#x9;&#x9;&#x9;&#x9;cy9pZC8iPgogICAgICA8cGRmYWlkOmNvbmZvcm1hbmNlPkE8L3BkZmFpZDpjb25mb3JtYW5jZT4K&#xA;&#x9;&#x9;&#x9;&#x9;&#x9;&#x9;&#x9;&#x9;ICAgICAgPHBkZmFpZDpwYXJ0PjE8L3BkZmFpZDpwYXJ0PgogICAgPC9yZGY6RGVzY3JpcHRpb24+&#xA;&#x9;&#x9;&#x9;&#x9;&#x9;&#x9;&#x9;&#x9;CiAgPC9yZGY6UkRGPgo8L3g6eG1wbWV0YT4KCiAgICAgICAgICAgICAgICAgICAgICAgICAgICAg&#xA;&#x9;&#x9;&#x9;&#x9;&#x9;&#x9;&#x9;&#x9;ICAgICAgICAgICAgICAgICAgICAgICAgICAgICAgICAgICAgICAgICAgICAgICAgICAgICAgICAg&#xA;&#x9;&#x9;&#x9;&#x9;&#x9;&#x9;&#x9;&#x9;ICAgICAgICAgICAgICANCiAgICAgICAgICAgICAgICAgICAgICAgICAgICAgICAgICAgICAgICAg&#xA;&#x9;&#x9;&#x9;&#x9;&#x9;&#x9;&#x9;&#x9;ICAgICAgICAgICAgICAgICAgICAgICAgICAgICAgICAgICAgICAgICAgICAgICAgICAgICAgICAg&#xA;&#x9;&#x9;&#x9;&#x9;&#x9;&#x9;&#x9;&#x9;ICANCiAgICAgICAgICAgICAgICAgICAgICAgICAgICAgICAgICAgICAgICAgICAgICAgICAgICAg&#xA;&#x9;&#x9;&#x9;&#x9;&#x9;&#x9;&#x9;&#x9;ICAgICAgICAgICAgICAgICAgICAgICAgICAgICAgICAgICAgICAgICAgICAgICANCiAgICAgICAg&#xA;&#x9;&#x9;&#x9;&#x9;&#x9;&#x9;&#x9;&#x9;ICAgICAgICAgICAgICAgICAgICAgICAgICAgICAgICAgICAgICAgICAgICAgICAgICAgICAgICAg&#xA;&#x9;&#x9;&#x9;&#x9;&#x9;&#x9;&#x9;&#x9;ICAgICAgICAgICAgICAgICAgICAgICAgICAgICAgICAgICANCiAgICAgICAgICAgICAgICAgICAg&#xA;&#x9;&#x9;&#x9;&#x9;&#x9;&#x9;&#x9;&#x9;ICAgICAgICAgICAgICAgICAgICAgICAgICAgICAgICAgICAgICAgICAgICAgICAgICAgICAgICAg&#xA;&#x9;&#x9;&#x9;&#x9;&#x9;&#x9;&#x9;&#x9;ICAgICAgICAgICAgICAgICAgICAgICANCiAgICAgICAgICAgICAgICAgICAgICAgICAgICAgICAg&#xA;&#x9;&#x9;&#x9;&#x9;&#x9;&#x9;&#x9;&#x9;ICAgICAgICAgICAgICAgICAgICAgICAgICAgICAgICAgICAgICAgICAgICAgICAgICAgICAgICAg&#xA;&#x9;&#x9;&#x9;&#x9;&#x9;&#x9;&#x9;&#x9;ICAgICAgICAgICANCiAgICAgICAgICAgICAgICAgICAgICAgICAgICAgICAgICAgICAgICAgICAg&#xA;&#x9;&#x9;&#x9;&#x9;&#x9;&#x9;&#x9;&#x9;ICAgICAgICAgICAgICAgICAgICAgICAgICAgICAgICAgICAgICAgICAgICAgICAgICAgICAgICAN&#xA;&#x9;&#x9;&#x9;&#x9;&#x9;&#x9;&#x9;&#x9;CiAgICAgICAgICAgICAgICAgICAgICAgICAgICAgICAgICAgICAgICAgICAgICAgICAgICAgICAg&#xA;&#x9;&#x9;&#x9;&#x9;&#x9;&#x9;&#x9;&#x9;ICAgICAgICAgICAgICAgICAgICAgICAgICAgICAgICAgICAgICAgICAgICANCiAgICAgICAgICAg&#xA;&#x9;&#x9;&#x9;&#x9;&#x9;&#x9;&#x9;&#x9;ICAgICAgICAgICAgICAgICAgICAgICAgICAgICAgICAgICAgICAgICAgICAgICAgICAgICAgICAg&#xA;&#x9;&#x9;&#x9;&#x9;&#x9;&#x9;&#x9;&#x9;ICAgICAgICAgICAgICAgICAgICAgICAgICAgICAgICANCiAgICAgICAgICAgICAgICAgICAgICAg&#xA;&#x9;&#x9;&#x9;&#x9;&#x9;&#x9;&#x9;&#x9;ICAgICAgICAgICAgICAgICAgICAgICAgICAgICAgICAgICAgICAgICAgICAgICAgICAgICAgICAg&#xA;&#x9;&#x9;&#x9;&#x9;&#x9;&#x9;&#x9;&#x9;ICAgICAgICAgICAgICAgICAgICANCjw/eHBhY2tldCBlbmQ9J3cnPz4NZW5kc3RyZWFtDWVuZG9i&#xA;&#x9;&#x9;&#x9;&#x9;&#x9;&#x9;&#x9;&#x9;ag0zOCAwIG9iag08PC9EZXN0T3V0cHV0UHJvZmlsZSAzNyAwIFIvSW5mbyhHZW5lcmljIFJHQiBQ&#xA;&#x9;&#x9;&#x9;&#x9;&#x9;&#x9;&#x9;&#x9;cm9maWxlKS9PdXRwdXRDb25kaXRpb25JZGVudGlmaWVyKEdlbmVyaWMgUkdCIFByb2ZpbGUpL1Jl&#xA;&#x9;&#x9;&#x9;&#x9;&#x9;&#x9;&#x9;&#x9;Z2lzdHJ5TmFtZShodHRwOi8vd3d3LmNvbG9yLm9yZykvUy9HVFNfUERGQTEvVHlwZS9PdXRwdXRJ&#xA;&#x9;&#x9;&#x9;&#x9;&#x9;&#x9;&#x9;&#x9;bnRlbnQ+Pg1lbmRvYmoNMzcgMCBvYmoNPDwvRGVjb2RlUGFybXNbIG51bGxdL0ZpbHRlclsvRmxh&#xA;&#x9;&#x9;&#x9;&#x9;&#x9;&#x9;&#x9;&#x9;dGVEZWNvZGVdL0xlbmd0aCA3MjcvTiAzPj5zdHJlYW0KeNp8kj9oE1Ecx78XCQVJFLRWKQpvqhmS&#xA;&#x9;&#x9;&#x9;&#x9;&#x9;&#x9;&#x9;&#x9;cCQO1aHSpGkaU2JIU2OLS3r3klx7uTvfXaJ2koKbQ3UUl6o4FUdxcHBwExEq6iKCY7FOBRcp6e/u&#xA;&#x9;&#x9;&#x9;&#x9;&#x9;&#x9;&#x9;&#x9;EhMw+oN3vw/f35/33u8dEIxULUsPMKBpOKKUTbHrS8tsZAdBhBECWVWxrelicd5jysVf9uszJNd/&#xA;&#x9;&#x9;&#x9;&#x9;&#x9;&#x9;&#x9;&#x9;jA2P/9fCgjYEJDoBRus+X3B5xec5l285lkN8w2WlUVWJLeKoKJfSxI+Jj9UHeGWAVW4rxNvElxVL&#xA;&#x9;&#x9;&#x9;&#x9;&#x9;&#x9;&#x9;&#x9;UJ9AmXiurdTdnnvEsqFqBulniSdVW2kSU23gvjsL/5hOHpg6Bxx519eWbWD7OXB6oq9FzgCnKsCr&#xA;&#x9;&#x9;&#x9;&#x9;&#x9;&#x9;&#x9;&#x9;ZF/bL3nzkcY+2LVkwpOkUAoIfut09ieAkYfAwYNO5/eTTufgKe3xFXijKy3R7s5Ikt4D/j08G81y&#xA;&#x9;&#x9;&#x9;&#x9;&#x9;&#x9;&#x9;&#x9;gwtNYe57FYVZ03Q+MNLhYf++fj86X6lH/2J/Jp5NAlv0DpWjQP4e8Og7cP4FcPIlUAwD5YsI3EVv&#xA;&#x9;&#x9;&#x9;&#x9;&#x9;&#x9;&#x9;&#x9;Ofy2t0/atO4Ird5wWEKWEyzmuiSbpj+Es7TZtFoOFyxnKPEoq+o681JtJrjNRZurcTT1Vu++x2mF&#xA;&#x9;&#x9;&#x9;&#x9;&#x9;&#x9;&#x9;&#x9;uLG4QJ7mFahxO9NlaVWtztDbIE68o/KZjPtfEG/WtNmc+yC03tbE7KLP0gnNyZV9DkwZemG+yzDM&#xA;&#x9;&#x9;&#x9;&#x9;&#x9;&#x9;&#x9;&#x9;wlW/J/YsJ1Xq9bfbC5mevlq9UiQ/TvqlNTPv5oxRbWS9Ua74LJXXG+lCl19jCTo4NBj0NcBQQhYp&#xA;&#x9;&#x9;&#x9;&#x9;&#x9;&#x9;&#x9;&#x9;xGBBwESNIhplaKRyL0cQ21gbmqmjOMCM4rtUs+vV3ESLqt2qa0gVsBH904HJX+Sf8id5S34m/9gc&#xA;&#x9;&#x9;&#x9;&#x9;&#x9;&#x9;&#x9;&#x9;b0X6kQ1xCAAA//+Kz0w+3/8BaC7IZpi5UFmomyDmJwPtdQTK5jCkA0Vz4X4qRnIpkuvS8iZIIUwC&#xA;&#x9;&#x9;&#x9;&#x9;&#x9;&#x9;&#x9;&#x9;2ZHa7vcNyZepSDbpMiSBTcoG21QGlisGko5ItuEKPaDa4zV7JBB2XWXZEXOZ53gNSljlY/gqFe4r&#xA;&#x9;&#x9;&#x9;&#x9;&#x9;&#x9;&#x9;&#x9;VD5CHbL+VAAAAAD//wMAzbABaA1lbmRzdHJlYW0NZW5kb2JqDTM2IDAgb2JqDTw8L0NyZWF0aW9u&#xA;&#x9;&#x9;&#x9;&#x9;&#x9;&#x9;&#x9;&#x9;RGF0ZShEOjIwMTgwMjEyMTEwNjIxWikvQ3JlYXRvcij+/wBGAGkAcgBlAGYAbwB4KS9Qcm9kdWNl&#xA;&#x9;&#x9;&#x9;&#x9;&#x9;&#x9;&#x9;&#x9;cij+/wBTAG8AbABpAGQAIABQAEQARgAgAEMAcgBlAGEAdABvAHIAIAAgAFwoADkALgAxAC4AMwAw&#xA;&#x9;&#x9;&#x9;&#x9;&#x9;&#x9;&#x9;&#x9;ADUAMAAuADEAXCkpPj4NZW5kb2JqDTM1IDAgb2JqDTw8L0RlY29kZVBhcm1zWyBudWxsXS9GaWx0&#xA;&#x9;&#x9;&#x9;&#x9;&#x9;&#x9;&#x9;&#x9;ZXJbL0ZsYXRlRGVjb2RlXS9MZW5ndGggMzA+PnN0cmVhbQp42mJgYGBo4H+8wKCjgyH+9z4AAAAA&#xA;&#x9;&#x9;&#x9;&#x9;&#x9;&#x9;&#x9;&#x9;//8DAB4ZBWsNZW5kc3RyZWFtDWVuZG9iag0zNCAwIG9iag08PC9EZWNvZGVQYXJtc1sgbnVsbF0v&#xA;&#x9;&#x9;&#x9;&#x9;&#x9;&#x9;&#x9;&#x9;RmlsdGVyWy9GbGF0ZURlY29kZV0vTGVuZ3RoIDkxPj5zdHJlYW0KeNqkjjcKwEAMBMc555zz/79o&#xA;&#x9;&#x9;&#x9;&#x9;&#x9;&#x9;&#x9;&#x9;FYcLgysLllmGLQQ/T/vwOgYmFjYOrnIePoEwfG0j4qcniqlipph/flBISipqGlo6egZGJrEzC6tw&#xA;&#x9;&#x9;&#x9;&#x9;&#x9;&#x9;&#x9;&#x9;Y+fg5LoBAAD//wMAcTMCwA1lbmRzdHJlYW0NZW5kb2JqDTMzIDAgb2JqDTw8L0RlY29kZVBhcm1z&#xA;&#x9;&#x9;&#x9;&#x9;&#x9;&#x9;&#x9;&#x9;WyBudWxsXS9GaWx0ZXJbL0ZsYXRlRGVjb2RlXS9MZW5ndGggMjM4ODgvTGVuZ3RoMSAzMzY3OD4+&#xA;&#x9;&#x9;&#x9;&#x9;&#x9;&#x9;&#x9;&#x9;c3RyZWFtCnjaLJJ9TNVlFMc/5/f8fiJWKBrcNhtcAkFFS5qKxSpfE72FFTWitcVN3uQlb9eLcc00&#xA;&#x9;&#x9;&#x9;&#x9;&#x9;&#x9;&#x9;&#x9;mzbCCYWM5hbTcgpFmS+5aX/U1WXLXCFrMuiFcElmtbKW1QLu02lrZ+e35/v8zsv3fJ8TCTdUkMjz&#xA;&#x9;&#x9;&#x9;&#x9;&#x9;&#x9;&#x9;&#x9;GBav3Rjxj49XpgGvwZTtlaGq+utvKj4GyX6YVFpVF61c9+bd5TA9CiVZ1RXB8saylBsg3Kk5C6v1&#xA;&#x9;&#x9;&#x9;&#x9;&#x9;&#x9;&#x9;&#x9;ojYeTVD8heKs6vpIY/7EpOcU/6W4o2792uA/BXMLYcMuxUX1wcbQS94hT/FXiv2hcEWorCn/VcWj&#xA;&#x9;&#x9;&#x9;&#x9;&#x9;&#x9;&#x9;&#x9;MHm31wLefaSr32zamQ72ovol9R/iq+2YV0tmvMYOm2ma/c7/DjPoYC9ZXJU8ThNjNQdZwgO0s5Je&#xA;&#x9;&#x9;&#x9;&#x9;&#x9;&#x9;&#x9;&#x9;3iWJqJzDJZPldDND0nG4F5947GGQxwkzwjAzCTAkU7XOCkKkcoe9ot8ATfakRk1iGYd4X+qkmNv0&#xA;&#x9;&#x9;&#x9;&#x9;&#x9;&#x9;&#x9;&#x9;XOjMkVzt3Gpj+JhpP7MDijoZkSx7hEI9fU8yOWzlFaZSw6d27D+FeJIu2SxXyKCMne58t9nWUsBx&#xA;&#x9;&#x9;&#x9;&#x9;&#x9;&#x9;&#x9;&#x9;LkhAT/cT9QYSj1OnWfvFJzH7rb3MB65QoZVeoEkZHyXm3GqWefvwk81dFBHUv88yKNMkzyy2OXap&#xA;&#x9;&#x9;&#x9;&#x9;&#x9;&#x9;&#x9;&#x9;3aO3Xfzu5DofmwTlkcsqnmAXr6sa/VzimlwnC6RTetT65BdvQLkFaGCT7kWnqtfF25yUPMlzfI5P&#xA;&#x9;&#x9;&#x9;&#x9;&#x9;&#x9;&#x9;&#x9;1fIxi0f0XysHtP8xzktASiUmp8wBb178HnujTbGXrWU2jyrDvZzSHn/IPI3RDuYWE3HT3Ih3+/g2&#xA;&#x9;&#x9;&#x9;&#x9;&#x9;&#x9;&#x9;&#x9;nbBcd+08fcpjSHW/xt8yW+2is8XZaktstx1RLhNJZxEP8hjr2cgzvKGvepqP+E1GnUSN7HXPeJu8&#xA;&#x9;&#x9;&#x9;&#x9;&#x9;&#x9;&#x9;&#x9;q7ZNtc1mqXJfo9HFWnunvtJRTqj165TJ4tcpFkmRPCRV0iodckIGZdCZ4GQ4Tzs/msPmnPnaXeh5&#xA;&#x9;&#x9;&#x9;&#x9;&#x9;&#x9;&#x9;&#x9;9k6tlEqa9s2khGp9gS2qdpvO280ZzkqKZMtcnahf8/90CpzlavudXmfI7DCt7pj3Ynw4/lN81DaT&#xA;&#x9;&#x9;&#x9;&#x9;&#x9;&#x9;&#x9;&#x9;oFu2UnVo4C1V4VdJVQ6zpEY2yHfK/GXnPZNkpphMs8AsMQ+bUtNk2s0n5nM37Pa4X3qrvKDXkxCM&#xA;&#x9;&#x9;&#x9;&#x9;&#x9;&#x9;&#x9;&#x9;PxXvswG7XbUQJiivHOYwn3zdn0rdplrlF1ILs5ltNNOi+9LGPnp07g85ywW+4Wd9ASRDOa/T7vW6&#xA;&#x9;&#x9;&#x9;&#x9;&#x9;&#x9;&#x9;&#x9;dTukRVr+BQAA//9MlX9oVWUYx5/v87zvOdKPv2w5LPI2Ww6bbYxlOESFMb2V4lpuOUvNJc67om0F&#xA;&#x9;&#x9;&#x9;&#x9;&#x9;&#x9;&#x9;&#x9;ZqFsdMtJ14JC5wZyYYhMMzQKp5mRShZrmj+21OzHkjBXYAyTMHTn9L1C0Pn8dTgc3ud93+/zedCN&#xA;&#x9;&#x9;&#x9;&#x9;&#x9;&#x9;&#x9;&#x9;D3EEx9CPi/g7hxaQIp2us7VS52qjvkU26yk9qyN2rz1vbdZOstZn3ztxzsW+jCR9xvcGA2FRmAwb&#xA;&#x9;&#x9;&#x9;&#x9;&#x9;&#x9;&#x9;&#x9;xh2/eWVs6lj92M+RRBOjZ6LO6Eh0Oa6LX2P9hTJNHmalHayymxncQT5gEvvkKzku527VehUKz8Tn&#xA;&#x9;&#x9;&#x9;&#x9;&#x9;&#x9;&#x9;&#x9;YzLTUMxbm415eIwswJOkljyNJWQFGrCatKEdbyCNN/EOttyii3vbgV3oI/txkHyHYfyGP3BVGWI1&#xA;&#x9;&#x9;&#x9;&#x9;&#x9;&#x9;&#x9;&#x9;prlQp2iJzuBOK3WeLtQa0qjNpEVf1jW8oV79RD/VszbeCm2arbBW67Y9dtSG7B+nrtiVuJmuzjW6&#xA;&#x9;&#x9;&#x9;&#x9;&#x9;&#x9;&#x9;&#x9;tDvpTrvz7oaf5Kv8ap/1R4N7gvKgNmgKuoK9wUhwMwzC6rAhXBcOhfG4Qtrqa+57n/z/KQlO4hV/&#xA;&#x9;&#x9;&#x9;&#x9;&#x9;&#x9;&#x9;&#x9;l1urw+yLfGvxHajliQW6yF60d+2MX4VRS+AC3raUvRBvt7l63ZpRp1+gwCb5ClslmyTGbr2o1/Sy&#xA;&#x9;&#x9;&#x9;&#x9;&#x9;&#x9;&#x9;&#x9;y8Mi/R1F7j3s12ar1CC3iB90eS7tR0T0nFToehzWY5a2dPy5VPgshn1WT0vC/aLjZZhd3aE0snyr&#xA;&#x9;&#x9;&#x9;&#x9;&#x9;&#x9;&#x9;&#x9;Kc3IYlfub0iK577Lr+V5z9KNmGpDLiuXbLL+hVF00hon8Lh7QJfpDOymccdwn1xBq7Rgi8zBZ/gJ&#xA;&#x9;&#x9;&#x9;&#x9;&#x9;&#x9;&#x9;&#x9;BwTYab2Yr3fwtj7SO/EoRE7Y/Riy26Q+VyMe1DxU66jW2qHglD0C0BJn5HUYSpmd/55IXmIHbNYp&#xA;&#x9;&#x9;&#x9;&#x9;&#x9;&#x9;&#x9;&#x9;dFoVbTKIMsmXrfT9tehQztj+vM8wZz1WLDVSKkt1QCrYG5fIYtkgZXKQGdwopdol6+J2rKT3F9Cf&#xA;&#x9;&#x9;&#x9;&#x9;&#x9;&#x9;&#x9;&#x9;KgfQJCW4nbacwNraOC/u1gK6cDlXvU7/f0PrP4E/5VUk2FmHpcjlvmxyVTTTc/RvhqyUpXzbJu8H&#xA;&#x9;&#x9;&#x9;&#x9;&#x9;&#x9;&#x9;&#x9;+/ygLMQEEZeIskz5j7KMM+dXrj9RZrK+JdLjill1gmZu5R/boqTMIRtkACrrWfMs9nm1S9K8nXET&#xA;&#x9;&#x9;&#x9;&#x9;&#x9;&#x9;&#x9;&#x9;d5jijJrPmdgvqXirVPLuauJ0nJHlcU/8rDTKU/FO+ndN/LFMlw5fr3X+IVdOx/bjS86jH5Cht5Ny&#xA;&#x9;&#x9;&#x9;&#x9;&#x9;&#x9;&#x9;&#x9;4V8AAAD//wKWR6qMEgyvgHAd0P12rLsZuliuA8tO+/89/68yiALDQwkYQknAWvQJQy7DO2C4eTAf&#xA;&#x9;&#x9;&#x9;&#x9;&#x9;&#x9;&#x9;&#x9;YDD+58e08b8bcwGwhrrPEPh/+X95Ri6GjP85wJJ3D8NSdlZg2dPAIMe6FJh2u1nSmAyA7tVkEGPU&#xA;&#x9;&#x9;&#x9;&#x9;&#x9;&#x9;&#x9;&#x9;B4rGsM5nvs78kaWAYRSMglEwoAAAAAD//xpFo2AUjFwAAAAA//+kl8tPE0Ecx2db5NFS2iKhL9RZ&#xA;&#x9;&#x9;&#x9;&#x9;&#x9;&#x9;&#x9;&#x9;R1DoVnygvGHT7jYYVOQVdw3ELbTQggo+gsGDMSaEZEXjSa8kXj3MygUuRg/GxNdBb5ooB+PNv0G/&#xA;&#x9;&#x9;&#x9;&#x9;&#x9;&#x9;&#x9;&#x9;uxgsXs1vs/nOzK/zm99sD5/vfz21iBB4KwyKicHDNoI4muBMbL5vBtu0gD1a4dzawS+d4JxuUEwS&#xA;&#x9;&#x9;&#x9;&#x9;&#x9;&#x9;&#x9;&#x9;3JMGTZwGZw0ghhGj8Fg6nPcYeGkcZHQRHjYLCpuG8yogZkF5c+CiBcf93QQP3QaR3YHXuQtCWkaY&#xA;&#x9;&#x9;&#x9;&#x9;&#x9;&#x9;&#x9;&#x9;cLMP4PsfgYweg59W4RGfgNaegnLW4CzWyQZ5Di/00vGNr+A0XoPg3pC3YLF35AP850fyCd7jM/kC&#xA;&#x9;&#x9;&#x9;&#x9;&#x9;&#x9;&#x9;&#x9;NvtKvoGuNsFnP+TzSzeuX7s6P3fl8qXZmUJ+eio3MT46MnBW7u3p7ursaG9rPXmi5fixo0eaDyek&#xA;&#x9;&#x9;&#x9;&#x9;&#x9;&#x9;&#x9;&#x9;eFPjoYMN9QfYfpHu27unLhaNhEO1NburgwF/la/S66koLyvdVeJ2CURSWdqgvMHgJQ2sry9hj1kG&#xA;&#x9;&#x9;&#x9;&#x9;&#x9;&#x9;&#x9;&#x9;E5miCYNTTKV35nBqOGl0Z6aMzKl/MuWtTHk7UwjQLtKVkKjKKH+vMLouXBjUoO8rTKf8p6PPOPqh&#xA;&#x9;&#x9;&#x9;&#x9;&#x9;&#x9;&#x9;&#x9;o33QoogfUDWcVygXDKry9ELeVA0F21leT4qlcp6ERCyPF9ILxUNs3hJCPYIjXCG1w3KRch8OxaNM&#xA;&#x9;&#x9;&#x9;&#x9;&#x9;&#x9;&#x9;&#x9;UXmEKfYJuLtezWT5uUFNVWKiqCckLqQm2QQnLMn9cSeFpJwyvDTFy5wytGB3Q+5RS3phrqwHyIQR&#xA;&#x9;&#x9;&#x9;&#x9;&#x9;&#x9;&#x9;&#x9;r8yybGZM4+6MbtcIxlFX4aFb38N/h9i8OqUtF6/G3KYaLlB7aJrLlK8OasWrov3WdezBXfVpw0yj&#xA;&#x9;&#x9;&#x9;&#x9;&#x9;&#x9;&#x9;&#x9;8AqusH+YopZrSde4sISC1O7D7mmruxxT7RljhvIKlmR5c8bAh4manAwtis+iUXnj1yaJqtQc0ZjI&#xA;&#x9;&#x9;&#x9;&#x9;&#x9;&#x9;&#x9;&#x9;e2NMzyh1Vg0xhxbXIjKN7FxJSFYguHWtVpX/j6j0FYvc9pqjnHRb9Q9t36tgn4idwt+B00mKk2gM&#xA;&#x9;&#x9;&#x9;&#x9;&#x9;&#x9;&#x9;&#x9;PbXZr98AAAD//4xXTWvbQBDdXSmJagwVhOSii8RWpkQJOZUYGZwlwiLFh9aJCivTg/wRSG459ayj&#xA;&#x9;&#x9;&#x9;&#x9;&#x9;&#x9;&#x9;&#x9;WffHrNweZJ/6g1roJWd3dmW56FIqhDXvvZnZ1cxIRg9dJGZdcIMjxRAl59CPJ/kqyoQdAm+reHng&#xA;&#x9;&#x9;&#x9;&#x9;&#x9;&#x9;&#x9;&#x9;29QVLwj6T3/9bDKTHXPo2y9ImWpK9oMGem3LIJBnZ2pAjiLoKOyxr/G7i/MvJZH02XbhAuVDH6G2&#xA;&#x9;&#x9;&#x9;&#x9;&#x9;&#x9;&#x9;&#x9;kzS8hOJ7nmrvsmRoCkDmI15hF02dFWKXQSpJppQftXLySSl5rezDMwpz/B3B1xw6kVZnf762T48H&#xA;&#x9;&#x9;&#x9;&#x9;&#x9;&#x9;&#x9;&#x9;j6HEp/+QHyp9eE+HozF3ByLb1XaYNFCld/fazsKVAAWXpg+Vek9h9O7GXBFwHvgxHTxlt/CowR7l&#xA;&#x9;&#x9;&#x9;&#x9;&#x9;&#x9;&#x9;&#x9;ccQNh6SVRRxDp4L5/bzPrABvq1ymf6jnf14eWTDAmsFuLO3stvpNW573n0Hl9reK0pe/Ybt7kmHQ&#xA;&#x9;&#x9;&#x9;&#x9;&#x9;&#x9;&#x9;&#x9;xL0GbmyvLQzYsNkhw2QsRKuhxfCyEiKmbiwyMSm3+ZS6NhVrgxtcPA+yuv3ldrN0ZPw1hZt4xOHF&#xA;&#x9;&#x9;&#x9;&#x9;&#x9;&#x9;&#x9;&#x9;OVWKEPMCGX7CJXMKrI2raJnKD0FK5TSgHuUPsEgRoraXZBFYBN0UFC9GBcOL+zFf2wi5i4SvCCZR&#xA;&#x9;&#x9;&#x9;&#x9;&#x9;&#x9;&#x9;&#x9;dpMWb0DjaxchplmiWEUq4CoAn/nwLK2Ipf2dNUMo16qpCY1nJUaas2oOo1lJKs6uFurohRgioJiV&#xA;&#x9;&#x9;&#x9;&#x9;&#x9;&#x9;&#x9;&#x9;wmpvEzir4vLK++3O2wLFVsoGwb8G0mJ1FAASzlpXLGQ91ifXBCqiqBUwG/DtYfStj6+xU0DOO02X&#xA;&#x9;&#x9;&#x9;&#x9;&#x9;&#x9;&#x9;&#x9;OC96zFnrTIr6AwAA//90Vs1u00AQnnXiuOWUwIEi57CW5UhoBW0PSLREgJCaKkFUgbYoBoLsuEkR&#xA;&#x9;&#x9;&#x9;&#x9;&#x9;&#x9;&#x9;&#x9;hL83yAUJ7dNsKEiVkNrH4EUQJyrxzW6Tpges9Y53/c14d3a+GTNyAiTPTeZzWDnDFgzhe27j+xc7&#xA;&#x9;&#x9;&#x9;&#x9;&#x9;&#x9;&#x9;&#x9;2H/RO7pPsG97IB7xxfkSi1hkgk0vzAKbSwsUsBEkUziLweq4M/V2lJXCSt2Jtw6A4BsV4g5WFcmD&#xA;&#x9;&#x9;&#x9;&#x9;&#x9;&#x9;&#x9;&#x9;lFExRwef8H9BYgHEec8a19V7s5E4H2GAps3h5eGb+bDFNwpqctsRBPFsYzMyb0MzTtUckpvJQGoE&#xA;&#x9;&#x9;&#x9;&#x9;&#x9;&#x9;&#x9;&#x9;8SZH8qZV3uY7A7G3zaTImeMgfRFjooMJ2RuEUQqDXFc0l/kih1q5Mf+S+aAumUTwiz182kt4O2bS&#xA;&#x9;&#x9;&#x9;&#x9;&#x9;&#x9;&#x9;&#x9;lVkqM5BFPO2BqNL4kHKEWh/nTJCu208XuQoi17vQJRxEGpoAGWuUD2Omt+GDdd53ualjaLdnKNQ6&#xA;&#x9;&#x9;&#x9;&#x9;&#x9;&#x9;&#x9;&#x9;1kZgiUkLYJhvmEqjzQLtk4rzIf+GjPgvZOgqJJZrvcPWwq04SgHxEutLOA4RNeCu0PyT088UPFHT&#xA;&#x9;&#x9;&#x9;&#x9;&#x9;&#x9;&#x9;&#x9;V7Xc0IjsPkhZbhTPMxBYVmVL2qPOQ4zghDaPUhhywOWEgdC3rWHeq2k/SC5mbPuoHHjJWrU1z3Rn&#xA;&#x9;&#x9;&#x9;&#x9;&#x9;&#x9;&#x9;&#x9;kMA2PHxWxrt+Fy9584LzscvO7Dw/acO9DxFVIWtL4+2dZ0qn32bVcHZgTg0zlpq2nCL3JOJrd5Hy&#xA;&#x9;&#x9;&#x9;&#x9;&#x9;&#x9;&#x9;&#x9;r8y1x89ehnDsLbC5TuTXfaISBTQ2X1Rv6omf3glVKPBOv5FfPvZOvpfoSsAPPwTdWKr4p3jvUUnc&#xA;&#x9;&#x9;&#x9;&#x9;&#x9;&#x9;&#x9;&#x9;pGXxTrymFVX90zxr7lR/N5+cNekBnqt/0a2vhVMqHwe/jsYkAsjpWNDKqlpVa+tpVItqCTpRL/8D&#xA;&#x9;&#x9;&#x9;&#x9;&#x9;&#x9;&#x9;&#x9;AAD//yxZXYgbVRS+596ZScb8TDKbyUw27Sabn1ncSJJtNlkSY3OjVWzr6uIWsYWwaRTWyrY1bREU&#xA;&#x9;&#x9;&#x9;&#x9;&#x9;&#x9;&#x9;&#x9;ZbcPog/SrQ9FoYvNg09WaRO1DduXtqwg9KXgow/uQ4T1JyAiVmw367lpB+bMYZi59/s5d7iHIQ+i&#xA;&#x9;&#x9;&#x9;&#x9;&#x9;&#x9;&#x9;&#x9;7OYDLpP7JCrdFL8XTgwuw2fkB9zYHxeY+MRhetjcCDLVrIfuhpgKxCFJmlMn13TudkklzYgYKwYz&#xA;&#x9;&#x9;&#x9;&#x9;&#x9;&#x9;&#x9;&#x9;ujDJXRFtQaNayFr7wkohptrsdq1PKv2eXgS/bhanslCDZvg6flPcuu52EauSy/hzmRyCGskXcCc9&#xA;&#x9;&#x9;&#x9;&#x9;&#x9;&#x9;&#x9;&#x9;YcdjDiUes/PThdyeoBFQTiw2VYfDldQDU6WDhacXVweXn4itzo141IBayk09d3phsS1wz8MKfZWa&#xA;&#x9;&#x9;&#x9;&#x9;&#x9;&#x9;&#x9;&#x9;qOahIe4olVd2v15YlgFQsauMEeqDOdyZnIcW3AUFujD9HVmRDh0RGm7Xyr4yyfQxCpApVI91naPt&#xA;&#x9;&#x9;&#x9;&#x9;&#x9;&#x9;&#x9;&#x9;JSJUE/DGjfF5Km/fp+anONsnOz04ic2Eizw5nG0X4YqLcZWX8iqv5BdUuKReUan6gfvNd8X4zVOp&#xA;&#x9;&#x9;&#x9;&#x9;&#x9;&#x9;&#x9;&#x9;lFACfekQZUgcB00OGT5kCyTDq+l0tXp7GNMZLlixnR7dK59DVq8N51GJfCeyWCAAXTbBPZQFKEVq&#xA;&#x9;&#x9;&#x9;&#x9;&#x9;&#x9;&#x9;&#x9;WE0u0oUID0RZltXZW6zFNpnCbsDX9I7UhZPtnwWK/t/CjnKl/KGcTr3v25jKpsLfUBe+b1UqiAcg&#xA;&#x9;&#x9;&#x9;&#x9;&#x9;&#x9;&#x9;&#x9;DnTvwJiD3+Vz/70if4nKHdjZYtflN4iPJMhPAkPnqBPbBqUjy4a4eDyjXdC4ro4Sm9uU23W7ZW/a&#xA;&#x9;&#x9;&#x9;&#x9;&#x9;&#x9;&#x9;&#x9;ku0Xt70L2Lktk1XsyGQSSq7DGNrxqDb6L/pqzX9mhSxCmGfe4S9AIp6IJahCgQFVHMld4d3hsTBT&#xA;&#x9;&#x9;&#x9;&#x9;&#x9;&#x9;&#x9;&#x9;Rmwt6bKtkBmiyrjkb5CIMtqAgBezoBuzBEQbEHZi0H1Gg4Qew5DCA0SYHJ6Tk2fDbTnadfz27ZIs&#xA;&#x9;&#x9;&#x9;&#x9;&#x9;&#x9;&#x9;&#x9;e4yu49fOkseDzFOVocHT+gyWnBn0ByhaMmHP+Mxgbk9hpuDHqnxYl/TAx2eO1Nfeu/jRj43bZ49v&#xA;&#x9;&#x9;&#x9;&#x9;&#x9;&#x9;&#x9;&#x9;PFtsFs6MpbOJ4uOlffnnp+nnW/DSy9VL3w+u/DG4duGXW/cGW+0LR099BcWti6ez40/ND9aEq3/i&#xA;&#x9;&#x9;&#x9;&#x9;&#x9;&#x9;&#x9;&#x9;oldQ0yDpDF0NcKtutaxNSyIWt+jb2NVSb3UEjkEV13mLxHDFi9yJeRwH+JdocIwE8Q6Bv7gXNI2q&#xA;&#x9;&#x9;&#x9;&#x9;&#x9;&#x9;&#x9;&#x9;FGTV6aaMrMM9fHw/171ejfvzWW1ZO6+1NEkLmes0Ab1H8qfKs75+738AAAD//0SXXWhURxiGZ+b8&#xA;&#x9;&#x9;&#x9;&#x9;&#x9;&#x9;&#x9;&#x9;zJ7snt2zO7t7zuxfzpqcJZ61mLhJmoVjPFhQFIqXqdol6VaIkEXZoC2EBo0oNkiatFRRbGtqqcUf&#xA;&#x9;&#x9;&#x9;&#x9;&#x9;&#x9;&#x9;&#x9;sPmxrhH0RrRCIDe9aKBisLnxIuiFAYNJ6Myu1puPgZmb732/95kZzanOQ5AHNA+Wl1bhcjbb0gxY&#xA;&#x9;&#x9;&#x9;&#x9;&#x9;&#x9;&#x9;&#x9;TAvxaShhpa4iPJssKT4u1BY+JMTKBcPRqB5Jt3WiNi4O1+Yl3J0mzqfrqKcjWoetmLVdfPTzm9P9&#xA;&#x9;&#x9;&#x9;&#x9;&#x9;&#x9;&#x9;&#x9;HSlkWSjZMoD++d42U/Ws+02s++us+xQ8W+3+BDa8ed1IbG01XFYoL4FUNLoRO3gXvopl19wv7vPs&#xA;&#x9;&#x9;&#x9;&#x9;&#x9;&#x9;&#x9;&#x9;1/cZfZ4jwSOhH7w/+i8Eb3hv+B9Lj/U/jXl93lgwV8QVPRKBSZFK8QiNUj1pYEX3Gt5kK91Jh/VR&#xA;&#x9;&#x9;&#x9;&#x9;&#x9;&#x9;&#x9;&#x9;ExsUIT1GfVRWBYokmX3OI2FMRLUCD7qK4oZ9244rUKkIOdenSbFRCi/RmxTRGSHHJB2ZgsiXqsAR&#xA;&#x9;&#x9;&#x9;&#x9;&#x9;&#x9;&#x9;&#x9;VwXysz2kmxwmx4hIKhC7hL/4YsB0zeOm0GOOm8ikd+EKy60KXTfcjQ6jY2gU3Udz6Cl6wZ6JtH4G&#xA;&#x9;&#x9;&#x9;&#x9;&#x9;&#x9;&#x9;&#x9;fvM+C4tOLQ2Fj1lENR7SpbVC2dm2Vp6Q+XPq9qgC7ytzCgKF8t7sIodp1bNQPo+02pHpQTpC2f5e&#xA;&#x9;&#x9;&#x9;&#x9;&#x9;&#x9;&#x9;&#x9;v3NakwYf+Fm8Ybm/wLxkAQDZ+G1V1VIppCkMbNMlTUKULSZLyFfLQCi/OZjfzCkgpNsAaGtltsq4&#xA;&#x9;&#x9;&#x9;&#x9;&#x9;&#x9;&#x9;&#x9;ob3GYSxjhNNb2ts/FK53ry6wX53506EDlzIWnbv465Pm3VdWOmGx1LUjBqX1NxbcDs9fHbpytHzn&#xA;&#x9;&#x9;&#x9;&#x9;&#x9;&#x9;&#x9;&#x9;4V9jvb2Xb62/7NBaPmCcAp8wnkww9w3QBLNV/+2jyhd1X/pPKPPWc0uWBTgoDIgD0VO66HiaZElo&#xA;&#x9;&#x9;&#x9;&#x9;&#x9;&#x9;&#x9;&#x9;oE1UFsxuD/RU4Ed/mBmYyQQYvkemDCBxFE0FVMjG3gUNHETeGLBdG7l2jz1uL9iiTWdgJ4jzLUA0&#xA;&#x9;&#x9;&#x9;&#x9;&#x9;&#x9;&#x9;&#x9;YpJm4pIxMk4woRvfA2mVXVaLb4n0yuFMcpaYJIWlfqZ19fZ6K7NXjstc5iqxNiUsJZRMpBJIDlpq&#xA;&#x9;&#x9;&#x9;&#x9;&#x9;&#x9;&#x9;&#x9;xlIairBeixdB2s9WjXWZIkyEzCLY4GMFvCNS1h4aqkVswpOp4OVbJY8nYMAK/nu6ZEgBBql/J0sB&#xA;&#x9;&#x9;&#x9;&#x9;&#x9;&#x9;&#x9;&#x9;9X9fOJ9gxC/gd15wPgVbQ43tOShHwtEqqGqGCedO/vZLX+PYt2dme7+aPfPZve9g4HXf2mxo547c&#xA;&#x9;&#x9;&#x9;&#x9;&#x9;&#x9;&#x9;&#x9;rq7hrwczXdJBS91z+dHw5wu/X/sPAAD//0yXW2gUVxjHzzdzZvY2s+4lu+PusmoiO9NmEzdmMsGo&#xA;&#x9;&#x9;&#x9;&#x9;&#x9;&#x9;&#x9;&#x9;yDFItbhUQVGpStc8RI0raiqplwhrmuKdDdiKJSArJJY0CJpIssagCA30Rh/6UKVPq8TaLaRPwQfB&#xA;&#x9;&#x9;&#x9;&#x9;&#x9;&#x9;&#x9;&#x9;xO/MxtZhZs4w8zBwvu93/r9z+fs9oxAfg01zu95sOLct86w1NXB9+PUyvkql56fFQSmNGVfidbpP&#xA;&#x9;&#x9;&#x9;&#x9;&#x9;&#x9;&#x9;&#x9;6HxpNBhbJxXnSyyJDxEnSGKtq5UwNaMW1J/hJ+EpPBVKKpYAPEBUpoqCRDF/rrKoKFSJokBFVWIb&#xA;&#x9;&#x9;&#x9;&#x9;&#x9;&#x9;&#x9;&#x9;Lek5yDjIzwG3PkX4dqzgAU9EkSaEv4kovGQKoT7K6FZaoBKdFP4iykKdfK/2zkzbxMxyRpK+mWQl&#xA;&#x9;&#x9;&#x9;&#x9;&#x9;&#x9;&#x9;&#x9;zc55z/xQKRBzHZeOy71Sr0ztKtkMdOK8x8bcbkKR3aJz6UgWf8ynN2C3PKY7Rl81LvEO4zfhydza&#xA;&#x9;&#x9;&#x9;&#x9;&#x9;&#x9;&#x9;&#x9;o/DN3KVjDdvNuJTWXz+kU7EVGQ/S3I3dexG7N0J0YsKA3b8TmJsuc6lZaxwxT9XkPDklF83FehI5&#xA;&#x9;&#x9;&#x9;&#x9;&#x9;&#x9;&#x9;&#x9;/aI5tHgw+l1iVLkXHdcfGFPuKc8TNewgbpBVIeoywqoWTagJ72a4DF+qX3mHiHcNWQ2bcc/58Qef&#xA;&#x9;&#x9;&#x9;&#x9;&#x9;&#x9;&#x9;&#x9;wW5jj9lBOuCgsF/vMA6Yp6Hb6KrrNvM0L+UcOWePvyeQr8qHr9Nrzq/91wL94Vv6beO2WaRjzrLn&#xA;&#x9;&#x9;&#x9;&#x9;&#x9;&#x9;&#x9;&#x9;H6XsLRvlxg8dqstYTVpgVaO0wUmUqEHtm0+zc1yW6vkQVOPrXbAI84bZVwM++6Cd+YjFLIFZGatg&#xA;&#x9;&#x9;&#x9;&#x9;&#x9;&#x9;&#x9;&#x9;lSxqLZ/EDyISVYtEuRs0pvVpohZpmoB/ofxftM/OcJJmpmcr6c7xAe5/iExjMrWkxh+mzlCiWlqO&#xA;&#x9;&#x9;&#x9;&#x9;&#x9;&#x9;&#x9;&#x9;Ue6It0FdVW0bWRFoaIMaiim+hEd5MlzfRlL++go4C+ScxQPBIXh2xsajCjFoUEZgXtzLylKwvuh4&#xA;&#x9;&#x9;&#x9;&#x9;&#x9;&#x9;&#x9;&#x9;NpINviNHa+Hg6P/LpCOsVYzL4O8SzQvQcISCMh9sjgwdLtzc++vQwI/Z4Tst6T/vPs7uOAkrT7Cu&#xA;&#x9;&#x9;&#x9;&#x9;&#x9;&#x9;&#x9;&#x9;9vactbJ529Yrh7M9+kZhuLewo/fRSGf6xqHzn7Qfy/9yct/nn979I3tmy8EvurY0HUjNvfxoMHO2&#xA;&#x9;&#x9;&#x9;&#x9;&#x9;&#x9;&#x9;&#x9;/9TOTS0d3ELRGvvEO0iURnbbxi9GipBgcXV/c1+kgHLDiEPBJWwRC6FMNvWFCiEhNAkJXC1/R2m2&#xA;&#x9;&#x9;&#x9;&#x9;&#x9;&#x9;&#x9;&#x9;+3/WzgdbmbiojisBmQQ8uIdAh/Obfu6V8J5XBt93zGpulnjVpda38lF8CwAA//88mV9o20Ycx3V3&#xA;&#x9;&#x9;&#x9;&#x9;&#x9;&#x9;&#x9;&#x9;smVnSSUntRxLjhzLp0hBnuX4pCwVZnXcP5R0bfMwb01YqUv252GBNU5Zu3YMM7bSDEpHB4EEWjay&#xA;&#x9;&#x9;&#x9;&#x9;&#x9;&#x9;&#x9;&#x9;wRh5KEndet0Yo497GPRlpH3pxuhK1/lt7GEjdD/ZpQ/3+96dng7u+/19Dl3rwmZ+cnug0p1V4Jbr&#xA;&#x9;&#x9;&#x9;&#x9;&#x9;&#x9;&#x9;&#x9;8Bz7A5yvcTY3gX/u3PLCLDerLXEXtCW2olwx15V185Hyp/nQ6Z3gzprvsdXiCvuKfsO2lC1zy+rh&#xA;&#x9;&#x9;&#x9;&#x9;&#x9;&#x9;&#x9;&#x9;/RZ+uCm+Ne63nvy4mdLdQMu/xxMuK2dyUJKaWyxnLSjqkLuX7jWWlLvoF3qPPTAEniKjryiReFhV&#xA;&#x9;&#x9;&#x9;&#x9;&#x9;&#x9;&#x9;&#x9;dmoyla14IV/cR6fcV9HR5Ky5jGMSJ/lVNEtr/km/4X/uR5SCUpzmiCQoVLOSDh/GREtoR9gFukrv&#xA;&#x9;&#x9;&#x9;&#x9;&#x9;&#x9;&#x9;&#x9;MmHYL/vT/hyeI7VQLVwTaoV3w4vKonpSO0UXzbPWR+Hz6nntEmv4Pzn3nMf0X5qciYhpNZrRpbQq&#xA;&#x9;&#x9;&#x9;&#x9;&#x9;&#x9;&#x9;&#x9;Z7KMcoTPcZ6dpkQfncgxktctz4vKo1YiIeO8FYlEI59Cb4JzbvheRyqBNDZ3T7rBcnPP/o6Wd8L+&#xA;&#x9;&#x9;&#x9;&#x9;&#x9;&#x9;&#x9;&#x9;S8dTqEcrpHCqytvpidxY8EHa5/WXIfMwB+VXnvDBZk9fzOV4NMwjCNI7ZSMXHhjA1VwvQB/Uvj6o&#xA;&#x9;&#x9;&#x9;&#x9;&#x9;&#x9;&#x9;&#x9;uiTuECVcFYeDpXh1l/89usNluBNoEO6MffhvG2ivDe4BprCPLeyBLB8jzz9SO9KesaVSqQS2rbc7&#xA;&#x9;&#x9;&#x9;&#x9;&#x9;&#x9;&#x9;&#x9;FqtDskrtYABeOO0OasDoNsGADsHEk46btQY1JChqUsXh8Ag1sMFGrMERhhxhjKGsNsKIi8YYMdVR&#xA;&#x9;&#x9;&#x9;&#x9;&#x9;&#x9;&#x9;&#x9;hgqhPOOMIZ1xWpF4DLJcKtmlZ67utkRw9rEFVK/XufrCM8sH/4TgzaR7LeGv5ryuR2W7JfyzMS+P&#xA;&#x9;&#x9;&#x9;&#x9;&#x9;&#x9;&#x9;&#x9;AsqDxIFPr8/LOJprCdsAqvmW8BjkKbZGgiSw7WAEfbSTB90MCGczHiu+MN4h2GzWywD6B/uGHIRA&#xA;&#x9;&#x9;&#x9;&#x9;&#x9;&#x9;&#x9;&#x9;NxiE2NPG2kEhsnFx/4nG/QfbDVY1EkPmIYanvpxbvvr+9jnj+K7Lnx2+fev16VMLzR9euX3pxaMq&#xA;&#x9;&#x9;&#x9;&#x9;&#x9;&#x9;&#x9;&#x9;vq5VXvv4jW+rxni2TuY/yOSMQXrz9JtfiIKw+8NDp7+W/3tHXTtz5PLLfAi67dST30Ji6G2Oou6L&#xA;&#x9;&#x9;&#x9;&#x9;&#x9;&#x9;&#x9;&#x9;shLVHORghzjpZXFFWxPX+m+IN/ufi2hwAECkc/Ez8kXyiXyFLCvr5DsS7SU7eDx0gMyQkBORYlSF&#xA;&#x9;&#x9;&#x9;&#x9;&#x9;&#x9;&#x9;&#x9;xhpqYhWhW1yLHLwxvBqyUgS18P1mzL4mIalFJpv/AwAA//9kWE9IFFEYn/dGN3d212b/ueu+sXnz&#xA;&#x9;&#x9;&#x9;&#x9;&#x9;&#x9;&#x9;&#x9;dleodXdHXfXi7o6QTR0CISOCBEPJQA/uHoyCbkLkIYMI6qDZITAQhEhbtcBrhWQQBFFoHqSDCxGL&#xA;&#x9;&#x9;&#x9;&#x9;&#x9;&#x9;&#x9;&#x9;h9C1780aRc3M92ben4GZ9/2+3/t+b9L1yIVdBTFpJH12PAe6ErXIc/NupLqzbuwOGQBoeycNoqNB&#xA;&#x9;&#x9;&#x9;&#x9;&#x9;&#x9;&#x9;&#x9;NYiDFtyCZ6KDAxbRx/rylorbzeeA8nNAS/u5Ul9pO1vcKRWRzFeB1xZcqJ/YnKAKGh2NdVEbsccF&#xA;&#x9;&#x9;&#x9;&#x9;&#x9;&#x9;&#x9;&#x9;px+KmvrqOJICrjhn+EMkVOg9D7mRUUupIssKxj4lIirV4NjnI4roc0HG9GzEZ6+QfNZdSVwPc1dv&#xA;&#x9;&#x9;&#x9;&#x9;&#x9;&#x9;&#x9;&#x9;2HIW9vs8lnoL2KrClLO9J8LFHfd4R9V7Vc1sP7716eZY8cH4m+vqlfL3lfL80sQiyr66N3nCQ3wh&#xA;&#x9;&#x9;&#x9;&#x9;&#x9;&#x9;&#x9;&#x9;R/VwufXd4u3yh41C+cfd3KxvYfbn8t5b1Ltyus5LdPAYKLHqKWDJbrRc2b2xEnXT4HMkRAsHuws8&#xA;&#x9;&#x9;&#x9;&#x9;&#x9;&#x9;&#x9;&#x9;UKOpwsGe4eGPqRDvSlmRm/LCAMPLm72IOfmdWbPLCgffQH3IvM4HslCXLG4JDWBNYEmwhOCE0g6W&#xA;&#x9;&#x9;&#x9;&#x9;&#x9;&#x9;&#x9;&#x9;BesUtwxHWohEEmmcUCQsZJNJntasycXizo5VoCSf2dW1GL9/ia1y3W/kRs0Zc93cNKu85rRitPfA&#xA;&#x9;&#x9;&#x9;&#x9;&#x9;&#x9;&#x9;&#x9;I/aoxKExphJFYymVJDTWrZKMxrBKJC3sVQnRwlGVxLVwm0rSWhhmIRyJkEw67XBIOBGPKwqp8XgZ&#xA;&#x9;&#x9;&#x9;&#x9;&#x9;&#x9;&#x9;&#x9;NhjaYIgynY2yGbbONpmNFTA1QrLZb66aIjWR2R1lbT2p/hROTZ+6/DkYOyuX8nwbS87lS325fKe1&#xA;&#x9;&#x9;&#x9;&#x9;&#x9;&#x9;&#x9;&#x9;oSXDWSnhn6DpN19Yqx/qu0gWsgD9TCfE++JIQ1NSJCEr9CNC4UjRcI3A10kZLOF4DakRsnBwvMRi&#xA;&#x9;&#x9;&#x9;&#x9;&#x9;&#x9;&#x9;&#x9;gRa4OGC0Q3kPDODnGt/md/sCPKNu9f8mCO2/ln9fQU/wmEuiMV3HJ3U9RgMuSW3S9f2X+rnG+v0J&#xA;&#x9;&#x9;&#x9;&#x9;&#x9;&#x9;&#x9;&#x9;q6t5f0XvbQxWenA3+AAi6iMav6rVe4LRaEDuGty7P1SpNNMbaKo88KcmDv81DLB3HFboF4A9Kny1&#xA;&#x9;&#x9;&#x9;&#x9;&#x9;&#x9;&#x9;&#x9;2ILAeoioQJHBLuAhfA1P0If0KV2iTsQK6I7RWjvYfh5fOobtKhE1VtdB3GkmqeQXAAAA//9cm89L&#xA;&#x9;&#x9;&#x9;&#x9;&#x9;&#x9;&#x9;&#x9;FGEcxt/3XdeZXWN3UndHd37v7I9xx17NdcFVcKdTiYhSUrGwhBhh7B5kWRErSqg/QIiyQ1hBiAch&#xA;&#x9;&#x9;&#x9;&#x9;&#x9;&#x9;&#x9;&#x9;U6zFLh4iopN0Cd1r1KEuwtKltN73HSvqsrMMzFw+z/f7PM8LIximrumgGzjE9j/LxwUkm8jDg1VY&#xA;&#x9;&#x9;&#x9;&#x9;&#x9;&#x9;&#x9;&#x9;QlX02ukKi8xuRKZFkSlUjPp8fqZQP7vrZ7L2LxkTBXcrULcRDuilXmdVlvD7WMhmXWplQk3aBMDT&#xA;&#x9;&#x9;&#x9;&#x9;&#x9;&#x9;&#x9;&#x9;LATZ7haQR65y9fUS8TtKzuMu7Zzd44ZzKHr+W9WhxBEmwoTs6ob7RuX7p/T5eEimS/lK6YIuHOu5&#xA;&#x9;&#x9;&#x9;&#x9;&#x9;&#x9;&#x9;&#x9;Pfnw5hSc5Q4X4n16xVO8pXfG4zDlzP1YPaeFWvEMbaM06dj0IwPQCZ+7LQcTz73bn+nCM20VqSLf&#xA;&#x9;&#x9;&#x9;&#x9;&#x9;&#x9;&#x9;&#x9;sKbxPZmba3sZ27JqUk3eizW2JwVsJbLxbHLA6sb55NXkNJ7HTW8AjMgd8rD8ob0meVcs+C62K+7F&#xA;&#x9;&#x9;&#x9;&#x9;&#x9;&#x9;&#x9;&#x9;dkke+hJrlB1TsfiAJvFGFGoSZ5gkXoQMEyh6Z0qxcuaoiUyTC6Us4kOI5/hmEBFIqnEi0xFvZAjT&#xA;&#x9;&#x9;&#x9;&#x9;&#x9;&#x9;&#x9;&#x9;LDCYywAMHbyG0SO8jXewB3dCBggyFJABgtFggPEJsJsBxiewdAJX4eyGMTF5FAkIpQOXFRk2+1th&#xA;&#x9;&#x9;&#x9;&#x9;&#x9;&#x9;&#x9;&#x9;hOaChJsLEjQXsKMhNwUUSBfONrsEyT6XYx2i3Ba3Eh0iMfyYTH6S7ak0jEtm+vcqJxV3aHzOEdSo&#xA;&#x9;&#x9;&#x9;&#x9;&#x9;&#x9;&#x9;&#x9;oZkDDVFVHwCGrgFIZ9kGthvjy7BMmjA9cFVMYuibJUXhQ6kqt79eCrUSOWyWQsjL+5gweN49hLL/&#xA;&#x9;&#x9;&#x9;&#x9;&#x9;&#x9;&#x9;&#x9;dGKqgX/Hkjl5+CjyJsN//ZuDT+XESO/BK6KTVonoBO6/eL9Qe3uyfCpzVplaPHNnPD2Grh/OzGtE&#xA;&#x9;&#x9;&#x9;&#x9;&#x9;&#x9;&#x9;&#x9;J31axVOi/4bXry3vBE77/U/mLy4Ot9BePEg0s0Y1A1U2e/15mEd5Ja8WYREVlaLKdxk5Y9R44F2U&#xA;&#x9;&#x9;&#x9;&#x9;&#x9;&#x9;&#x9;&#x9;VrzLEoegooY1STCiZPqChsm1mUBDQpA3qmjbafFBGzhiINccJDIcA89oJUaWE+F9jKyPQfQxsr6o&#xA;&#x9;&#x9;&#x9;&#x9;&#x9;&#x9;&#x9;&#x9;GNZslUohQJ8AqqBeUh+rDeoWskD451eniXIPM+Jh8vYN/XKBtgbbrhcoXpWk0qYMfcF6U7DXtn8B&#xA;&#x9;&#x9;&#x9;&#x9;&#x9;&#x9;&#x9;&#x9;AAD//1xYzU8TQRSf2S7dbmco222oG9l215YlwFoK7tYypbiTNGgqJJCIX4kEblyM2h68IU38SJSL&#xA;&#x9;&#x9;&#x9;&#x9;&#x9;&#x9;&#x9;&#x9;/4Lx4s2EIGnCQTRcPHDj4EXDgXgj4UC8KNY3i8bE7O683Zm3u3kf837vvdvugVY93aqwzlXESQmu&#xA;&#x9;&#x9;&#x9;&#x9;&#x9;&#x9;&#x9;&#x9;v0vfQhcQQRdrnwSWY5GNbUrZrBazDNi07+5aUreWDM2j/TWP2LfeHzAW3cH8f2YKY6aST8mvegZI&#xA;&#x9;&#x9;&#x9;&#x9;&#x9;&#x9;&#x9;&#x9;ylqef983MFs8+TB6oz/9enHQv6oMaF0zvz7O91fKP45XrGHH8e2mTBOpu3eg8JRQvXMYeR55iy6g&#xA;&#x9;&#x9;&#x9;&#x9;&#x9;&#x9;&#x9;&#x9;ycjaP+zldhCCb8CF3nr7lBEnRghAcKg7B1Gv3TniRNel615asMDz1w2hMLg55r1Cz17I6zElpEoh&#xA;&#x9;&#x9;&#x9;&#x9;&#x9;&#x9;&#x9;&#x9;3Ha2Cq9AApuVh86P+pSr8FHKMxkxJmGJtjt7PCuYKJVXDWyEs0bIYWhOVqmel1ERSrYd110I4cd1&#xA;&#x9;&#x9;&#x9;&#x9;&#x9;&#x9;&#x9;&#x9;d4snonu35+4COu+GU+729hfX3dH2dgEcAKHvE/OFJ+nXLmLdtlgreKNuxiO6q6+gFe8ZWiNrpWhG&#xA;&#x9;&#x9;&#x9;&#x9;&#x9;&#x9;&#x9;&#x9;T1e0oBXIqjnTNROdsqdyMxUePM/E4gnFRrk6no7XSb00Xa5V6pM3yTJ5qj6JPyE98+nHackKFgNp&#xA;&#x9;&#x9;&#x9;&#x9;&#x9;&#x9;&#x9;&#x9;KeYhvzoyVPC3cB+iiHa2N1VGBwmjQvazlZJG56jEYViiETskD6lMq0a785kPETZrLBr3jUjRWIUM&#xA;&#x9;&#x9;&#x9;&#x9;&#x9;&#x9;&#x9;&#x9;8ZEFmSVIPFrlVQnEflBoFaRCCfTWjlzmSZmMbBdwYclBXjelvg+K/wkWiF73tvAy6keO+GOCIcdy&#xA;&#x9;&#x9;&#x9;&#x9;&#x9;&#x9;&#x9;&#x9;Ws5LR+bOkSO1HOxogsnZkmpQ6PaC91qst42XebavyMYUnmC2Mqe0FCj/8JGC5xSs1C7V7p12IxrN&#xA;&#x9;&#x9;&#x9;&#x9;&#x9;&#x9;&#x9;&#x9;pis6Ei5gkoh04O9hPgHH9wVIMY5PDha0w0Zw2BTlUZIJHtctnnaT1iMUo4XbIggKc4XR70ppwsx3&#xA;&#x9;&#x9;&#x9;&#x9;&#x9;&#x9;&#x9;&#x9;pcrjF8elqBqLx6TouZydk6IlwmyUzKRMpKd6rG4T5/ITXcxE4zHfxiWf6KZm4kQOhkq0aooSR4RC&#xA;&#x9;&#x9;&#x9;&#x9;&#x9;&#x9;&#x9;&#x9;DPWXON3hYVEE4SZuoAZuQFys3VoPdMhxID6iZu3OrY0xkBQ8cn9dC8lmgpVtkB1SxnUqyD4nhBk2&#xA;&#x9;&#x9;&#x9;&#x9;&#x9;&#x9;&#x9;&#x9;YWfgMoW3nyUsDqYsDwoaBxoHqgJVmfj/bwAAAP//XFlLaBNBGJ7ZZGezzcZsNkm7TXeTnaYJ1D7S&#xA;&#x9;&#x9;&#x9;&#x9;&#x9;&#x9;&#x9;&#x9;1tgmfWgwxUrRttI3GBqqVJAKfUDxcSlWERVrRNCLUAXx4EFrTUsUDxUrxRf02Ft7iFDFQg8eBNE6&#xA;&#x9;&#x9;&#x9;&#x9;&#x9;&#x9;&#x9;&#x9;M40iwi47u+wehv2+7//+//v36AfUTamq2SuFM8LG/LAkVXllskoPk/9ZmrHY0sNVVnNjxiLODZut&#xA;&#x9;&#x9;&#x9;&#x9;&#x9;&#x9;&#x9;&#x9;OfvNtNixU6kDKJfd1dXW1u10UMhd4Pqb51EX5abhAbPhbibRDiTkJi9cy/WS2qaB897S9197O/cH&#xA;&#x9;&#x9;&#x9;&#x9;&#x9;&#x9;&#x9;&#x9;glwoGAjNzpxra9CUvAK7LLkbR4aq6+Gd8vbmnsjhi6cdhRdOxaubz/SUXBkqLi6vr6wJV/SkSn0H&#xA;&#x9;&#x9;&#x9;&#x9;&#x9;&#x9;&#x9;&#x9;yi79ejvV4BJsjZHbzbdgorGwPBk9NEDV++B21tRKtANzxSzNspjhH/XgPIiVTcQUFzEFQPkBuygk&#xA;&#x9;&#x9;&#x9;&#x9;&#x9;&#x9;&#x9;&#x9;8QjmMKEDs/RYJ3xPO11cN1m8W6B6olebCMEJecsS+5c2md/+uERDWMVPSTS+uyIM/HFborbA1stz&#xA;&#x9;&#x9;&#x9;&#x9;&#x9;&#x9;&#x9;&#x9;mrPL3Ml3oi6hr6hPE07yE/wkmMTpojfGirEOPvFiHWyBPWq3NuBPqkltQh3TrirTzpQjpT6ED7gn&#xA;&#x9;&#x9;&#x9;&#x9;&#x9;&#x9;&#x9;&#x9;/mfwFVwWlgs/W7LaF+MbVBHXqvQq13zXjEn/ll9wGPDl9jowyOkjcAE6oPSrkjFM4knMASxjA3dg&#xA;&#x9;&#x9;&#x9;&#x9;&#x9;&#x9;&#x9;&#x9;uq8Uvodn8SJewet4C9vwkL5mh/bl/IAokO2tzrmi9BKLKFGySSv+4JNgu3RD4qSQzHxjEoyAFJgF&#xA;&#x9;&#x9;&#x9;&#x9;&#x9;&#x9;&#x9;&#x9;i2AdiPQBBx6Ne6Y8XIcHznigJwOlmLKFIEAyMlAViiEexYvjz7mbO9NC2jsmxkZ/jiayo2N0skWs&#xA;&#x9;&#x9;&#x9;&#x9;&#x9;&#x9;&#x9;&#x9;3+bmKCNuVsnNdPM69eP6uG66pUOagBAeRiIRGKEWIkEcBCEspQeQ1WgRQf2CM8rLchTSMidTXiw+&#xA;&#x9;&#x9;&#x9;&#x9;&#x9;&#x9;&#x9;&#x9;laO5iUJ/P02g7XYRY5OYz+JAUTDpGYtGnKf1/ygEEYxye8NgT82fuWEuCmSIJSA2tQZWp+5uQJi+&#xA;&#x9;&#x9;&#x9;&#x9;&#x9;&#x9;&#x9;&#x9;/Li6vMHrsPr9+040Hb1/ZbCtLgyPzb+GaG0V7rpxJBgKuid83tbB+w9+xCvPUvfZvJ018/w0KfsV&#xA;&#x9;&#x9;&#x9;&#x9;&#x9;&#x9;&#x9;&#x9;3Ng/dSwYilEcliKVQdCyA0cGTWDo+XmsulsNWrQcFH0G6x8N9jZ5+j3GAGyo9AtDe0HbRyrq5E73&#xA;&#x9;&#x9;&#x9;&#x9;&#x9;&#x9;&#x9;&#x9;KaRWx2RnTNxFOk/XbwAAAP//TFtNaBNBFJ79yc42W5NsmmybNulOqflpNs0opGigktS0phRKxRop&#xA;&#x9;&#x9;&#x9;&#x9;&#x9;&#x9;&#x9;&#x9;lNWAoB56aHtTCubsSTwUL9LqRfTSokKrp4DWn0LAU/US8CpS6FEoWt+bpGog+4bdnZ152e9974+Q&#xA;&#x9;&#x9;&#x9;&#x9;&#x9;&#x9;&#x9;&#x9;OLzmTEYR3qnQdPY5fKW2N2qCL6oLKGPC2H4Tl4JdIUKYoSg4NboYk4qxakyO2QY8xrDAaLSKpSJb&#xA;&#x9;&#x9;&#x9;&#x9;&#x9;&#x9;&#x9;&#x9;ww5DKJnq98NRxiuM8eyQuEcop1U0jWdFRtZwWokZpqkO1jebrtsoYPWp0IT1ISblR/WX5XKOo0Gd&#xA;&#x9;&#x9;&#x9;&#x9;&#x9;&#x9;&#x9;&#x9;d7K5Kl9RVzz31Brf4HVOi7zGZcKtdNipeCr6ZWeV0kkqMX7GW/Ze8T5Un6bXOa3zA0dmkCkNvAHb&#xA;&#x9;&#x9;&#x9;&#x9;&#x9;&#x9;&#x9;&#x9;MIAxJ0bZDLvKbngX2B22RtbYc/qavk8bCb0r2TkW7O8aD8eS1li0PzZuwzRDzYTFr2ZnpEzGVgyb&#xA;&#x9;&#x9;&#x9;&#x9;&#x9;&#x9;&#x9;&#x9;GAOdDJ1RMFy1ataGpdjWfUu2fgxd1LDsl8rmUG6VR7RStnS3nSNN7/9adiG0wg/mSMugstmdD4ge&#xA;&#x9;&#x9;&#x9;&#x9;&#x9;&#x9;&#x9;&#x9;LGkJ4W16E46qJ+MJfYgRR4VDisaZlPZk2HHVBJtJZ9EeMKCWlpdc4HJg8hCxjY74Nv0uEJ7Z1j3/&#xA;&#x9;&#x9;&#x9;&#x9;&#x9;&#x9;&#x9;&#x9;EC7a/XGtxcxBYOZ2kJxsNXcB2t2ewREzK//FuvyhVJta/fbz7e0ZP+vpdU5I5rB/wOobNn4fZLXR&#xA;&#x9;&#x9;&#x9;&#x9;&#x9;&#x9;&#x9;&#x9;63xuYn5zYf7mhXOHOztSefrZo8newODiYfNxOWoOLn2Svo4v5mdufdz9gsjH3tKssklCJKa8+g/5&#xA;&#x9;&#x9;&#x9;&#x9;&#x9;&#x9;&#x9;&#x9;Kd0KhUknFjOJTwifoGFf+FSRSJioyoQE8P95R3XBwDgomqYJI2L0xU1KaIDKFC/jbCo4G+6j6vbR&#xA;&#x9;&#x9;&#x9;&#x9;&#x9;&#x9;&#x9;&#x9;npgBg90ttBr1tGEIusGorLAv0Oe6roB/06nzRh0JvIX6WLhG1oHklONcWWyitaKOixRPItQDlNFN&#xA;&#x9;&#x9;&#x9;&#x9;&#x9;&#x9;&#x9;&#x9;qhBahWBknar0gfpEfaEquBQF1dBiEwj7UMjuBz1xCNqCeaC2IHwWnvL57P6WNUA8WG+Zx+cG7NV9&#xA;&#x9;&#x9;&#x9;&#x9;&#x9;&#x9;&#x9;&#x9;57oQYYvGJJgH7K8YCV7rcSNVUg3tKZ4Ii4Lrj+atYjRvi+JxaSqn2+h4bAHFVE6cnk1nc31apGPu&#xA;&#x9;&#x9;&#x9;&#x9;&#x9;&#x9;&#x9;&#x9;DwAAAP//VFpfSBRBGJ+ZvZuZvTvn9vZuT6/N899deJ6H9yRuRW4oZUUo5YNapqTvpvgQQViUyJWg&#xA;&#x9;&#x9;&#x9;&#x9;&#x9;&#x9;&#x9;&#x9;9JQ+eA8ZhL2IaZ29ZBAWpSDUgwqhPUSQCEbSm9TMrFLtsjt8O8zO3+/7/b5vJngl3JHfVnDpEIGK&#xA;&#x9;&#x9;&#x9;&#x9;&#x9;&#x9;&#x9;&#x9;iolKfW7jDM6gYTzku6cNFj5CTwvmgp/Qmn9d20U/laDeSTrpNd67jPqavPPvEI6fJO8uUlShT5jr&#xA;&#x9;&#x9;&#x9;&#x9;&#x9;&#x9;&#x9;&#x9;09lq9RQ6rTYWNaNm9SrqQ5lgJjIWnFQnPTk6p0573qJvaNO36wnRFQIBWSGoV6Ri7Eb5oE0TTG66&#xA;&#x9;&#x9;&#x9;&#x9;&#x9;&#x9;&#x9;&#x9;QiAdNkRTg7qldxgDRtbYMFyGYX4UcfDfKxyWXIL2BEWyajfolhjjyyYUM0KWaLjctPxh2BMeCI+E&#xA;&#x9;&#x9;&#x9;&#x9;&#x9;&#x9;&#x9;&#x9;lfBuKHSLwjQdpShNR+gGVTRqU94TOk03KaZTzHCBjFhXSqWtp5nNmpgCmMaKmbLDIBMtUflYsrpo&#xA;&#x9;&#x9;&#x9;&#x9;&#x9;&#x9;&#x9;&#x9;3TlHgzmtPL/Xe1zjpLGdJ9ucO8qNmT6xpJJ9HEAEf+sxOH9LimNZu+0c0OQRKFBTA3rbYV3LLAYQ&#xA;&#x9;&#x9;&#x9;&#x9;&#x9;&#x9;&#x9;&#x9;od5WSTjFJVnePCC8Nm+Z5bNTVh5/qMCxcos4ibAlM6YjmU7evuRxJI8jqVKymWoZWsSKFAesPP5I&#xA;&#x9;&#x9;&#x9;&#x9;&#x9;&#x9;&#x9;&#x9;k/Ef82sVtoIQb8AAOfKV+9uGN2DKWGuAeF1yr9T7FxcPqF4Q5+/HVx2E1AVCxkukv1eK12F391Db&#xA;&#x9;&#x9;&#x9;&#x9;&#x9;&#x9;&#x9;&#x9;YKrIeP/w8daP5+OLe0PwiVuLdFVfvIOOLfX3d10PZb5AuLYFyYepoy2xGvu2YGeNACg33MMgiU7+&#xA;&#x9;&#x9;&#x9;&#x9;&#x9;&#x9;&#x9;&#x9;YxXiKYmHKVvAWkr6eCb3SBmGlCUglTEPnc/Rd1sXis10aTKc4Ad+6cRKbQ+NxaP5APgT/hw0Z3RM&#xA;&#x9;&#x9;&#x9;&#x9;&#x9;&#x9;&#x9;&#x9;QVXt9oK2ULu8rW07oMchb0F7oy2KW5yOSh7A3jzwyzKAF7ULEzjG/0QTUCowxEJzIRIGQDZj1fZK&#xA;&#x9;&#x9;&#x9;&#x9;&#x9;&#x9;&#x9;&#x9;LZbfubz+QmQxlqo8gLjP4sWrX152NvJM+8T94jFj7IhSr9T7GiKDyqDPPe6CVamBklE8SrI0q05o&#xA;&#x9;&#x9;&#x9;&#x9;&#x9;&#x9;&#x9;&#x9;E4HplKphbt86KjqS6DBls1H6oBTORklOoXZRWTQbfRVF0UAsng+TTdwRS1ck9ACmxKNxxcjBC89G&#xA;&#x9;&#x9;&#x9;&#x9;&#x9;&#x9;&#x9;&#x9;uPOVQ79mYEUyBzU77w8AAAD//2xbT0zTYBTv1w/GGGPr/nUrzI2adRQ2oMv+IDhpA7hgkTCEA9IQ&#xA;&#x9;&#x9;&#x9;&#x9;&#x9;&#x9;&#x9;&#x9;iRdDggGWQLxJgjFBDyMmaLiIJzwScOgk4c8VLxAPXozogXARjDGG29T3dYtePGzvbX1fu7bvfb/v&#xA;&#x9;&#x9;&#x9;&#x9;&#x9;&#x9;&#x9;&#x9;93ud2IDsVhvzxGpFAZLkr8bGYrptby9aWS7aQES3CuvlY4sWRErjlmXKsmc5tBgsXHgLG3BFqftb&#xA;&#x9;&#x9;&#x9;&#x9;&#x9;&#x9;&#x9;&#x9;TOa+M0h5nWUlwZyMHmd0LSGZLGSScgFYVktJS7IL9U42KLiCAit6qXpnwItKqEagjHQCIEHX3YF8&#xA;&#x9;&#x9;&#x9;&#x9;&#x9;&#x9;&#x9;&#x9;xalSOeHz2eAe2oCWfH090WAz/NWGTEXxIQqv/6hDCSI7xKPAQnQaUpSH9KUckA9X1IVWvULHYOFT&#xA;&#x9;&#x9;&#x9;&#x9;&#x9;&#x9;&#x9;&#x9;g9jJbWwMb06PD7fHfO6o6vcHmxXvKb5eWJ27GA4ExO7b9EhPcmFnprvpki/O33U4Inc+dPYAJFz5&#xA;&#x9;&#x9;&#x9;&#x9;&#x9;&#x9;&#x9;&#x9;lcIfgVlcpq5RN3Gh+GyTnU0/Cy4nMNXEaPRs4+wgTTUamg03HteVya392mTrTHBKI/38efcDTzb+&#xA;&#x9;&#x9;&#x9;&#x9;&#x9;&#x9;&#x9;&#x9;qGP+arb3Yf+Se8mz3J8ve1uec+c8+7H93j3tUPuifddqa+pcUSbuTPi18pdGNSHXUixO8GotxXX9&#xA;&#x9;&#x9;&#x9;&#x9;&#x9;&#x9;&#x9;&#x9;+59RpcPhrDQCcbYLROOwA+4J5DY6zTKxSpW9Sl4R1oRdAQt59HxzODTHIyA4R0o1ibWv8Gv8Lo/5&#xA;&#x9;&#x9;&#x9;&#x9;&#x9;&#x9;&#x9;&#x9;0hjdwhAeYhXPoopU8qyUqsBXapiUnJp2ImceGRXHpBHdN4Jjg90Y44blLtSVxxHFzKmmFg6luTmO&#xA;&#x9;&#x9;&#x9;&#x9;&#x9;&#x9;&#x9;&#x9;5rbp95QBirKPSsImk6GCG0AD4bC1bwdLgK8+eG+j+rCk+BkJTUpZaUXCkofguWQmpSTF25rx3BAa&#xA;&#x9;&#x9;&#x9;&#x9;&#x9;&#x9;&#x9;&#x9;IudWDVUOzrsc49SdI11PGCLk11QNBTgk+EUk6rnrrollRdQvTol74qFYJlpIJGz6mSNTBTjfFDuZ&#xA;&#x9;&#x9;&#x9;&#x9;&#x9;&#x9;&#x9;&#x9;aMSZOk3SFO0FXPNyjQz1VpljmiX7NIVSuhKRitSxyMpOsQcALvnfPxSbrruZyUKE1X8jm6e3Fcey&#xA;&#x9;&#x9;&#x9;&#x9;&#x9;&#x9;&#x9;&#x9;jOSIhNOYTmNEYQbTmFxK7kJMt7BXTA5Plu/EeUPOEY+PaFvoHsUj0/qCJxQ6J+UE2HGWKejOWShz&#xA;&#x9;&#x9;&#x9;&#x9;&#x9;&#x9;&#x9;&#x9;zISmz/UPoWLTdpo5hjXlaAZmshIIFU4IJMnMWYb06UbBkHgIBlTKHfCfeRpwKfMHAAD//0xaS08T&#xA;&#x9;&#x9;&#x9;&#x9;&#x9;&#x9;&#x9;&#x9;URSe28d0OgJ9BOkFprYTmKnQDqV0pgwvGQooaXkLFEl4RFgZEoGFJmyEGKNLoztj1I0rVyZV2bDA&#xA;&#x9;&#x9;&#x9;&#x9;&#x9;&#x9;&#x9;&#x9;NO7qXyDuNSFqiFGinntaoDO5k3PP7dxm2nvu+b4z389vABajzKMcKuDZYgFbVpedKcxO6x7b2Vz3&#xA;&#x9;&#x9;&#x9;&#x9;&#x9;&#x9;&#x9;&#x9;cLMhBQOUOFWlI5FM6Ak7P6BOqG1KqzqnzEhE6rkkcVljLMylSX+Y63P2S9ykNiZx09GZMBmiVyUy&#xA;&#x9;&#x9;&#x9;&#x9;&#x9;&#x9;&#x9;&#x9;G8lJZC4X7G6Ejzf2cKOJTJhkM0bKsg2GWX3V0SuR8fiUxF1vmQpzw4FBqaQAwTLJ+eX83XFJ5bmL&#xA;&#x9;&#x9;&#x9;&#x9;&#x9;&#x9;&#x9;&#x9;B9li4hCyianUEtu8sEYNr5/VS47e+pEFwnYi1O65ji1lHZYqLNhlgUwIpF8gcYGEBOIRiN8u8FYq&#xA;&#x9;&#x9;&#x9;&#x9;&#x9;&#x9;&#x9;&#x9;E+Ma6wf3XIfv1uvrM3wvWrxrKuZhAt5SPsSfp8FbXF5aLB/RCtFJANIiigwhTTaVKSRfkmyx80zM&#xA;&#x9;&#x9;&#x9;&#x9;&#x9;&#x9;&#x9;&#x9;xUomcOJdhAlSAmdSFL6yB31jZqH46v7Kx2iNnXfaPdG7ZuH10LVYSG6XNj73Ld6+9fzPwYPsBZ/h&#xA;&#x9;&#x9;&#x9;&#x9;&#x9;&#x9;&#x9;&#x9;WtajXeRiZm1Inxy9OZz8+yve3r22n3+T1J99IeMtT288KlhO3h1oEJ38yMbO+1q1q9YXdjnsTnf1&#xA;&#x9;&#x9;&#x9;&#x9;&#x9;&#x9;&#x9;&#x9;xvTm6pNcR4pSJe1eDSVCTUu2h3e2X+TSW9svF9Inu8l5pb35yr0Rva7OATCGq4bM/QO4bMq2X5G5&#xA;&#x9;&#x9;&#x9;&#x9;&#x9;&#x9;&#x9;&#x9;g6bFtgev6BMxTYu0mfUpFqgpUFWMPMoqV8hvaQ0LBaqyXB5iDlXWjYhGZEdVlW1WxjlkjbI5tL1/&#xA;&#x9;&#x9;&#x9;&#x9;&#x9;&#x9;&#x9;&#x9;v/PMC8Zxng1op5EMxlfLg5AB59MIcNABEYCAH5oC7TK0CKcDLPAYlhvuNVJcxBeMOVwQPPE4Y8L4&#xA;&#x9;&#x9;&#x9;&#x9;&#x9;&#x9;&#x9;&#x9;5hT+2zIbRijuLXzq8BaiJU8R6HGhghnP634W+AZe4RsjOkzKpvRFRAQHIgICEUGDSNFF0UXRRanZ&#xA;&#x9;&#x9;&#x9;&#x9;&#x9;&#x9;&#x9;&#x9;SWR0y+iW0S3D0xzhngbG9zwbAOPkAxvTNLOzjCkQUpTtIoOS8BRAooulqiWTv1lx02o1RHMF2IBH&#xA;&#x9;&#x9;&#x9;&#x9;&#x9;&#x9;&#x9;&#x9;8ag75mPzPwAAAP//TJtNbxJBGMd3WFjYkS0s26azlC77MhRJM7QSKEvT2iWiBxpbLtaLNMSjHkCP&#xA;&#x9;&#x9;&#x9;&#x9;&#x9;&#x9;&#x9;&#x9;Xmr8AGZPXm1i4sFT01TFxEO/ANpTb00a70168iY6L7T2Ms9ksuwyWX7z/J8Xogf+sX/iy4sK6Pg9&#xA;&#x9;&#x9;&#x9;&#x9;&#x9;&#x9;&#x9;&#x9;f8CWAh/YCVSy9KGcCnSXlKxi24UlK932nJK1MJSngrJXK5abVavWAnZxReK7pMpP19PQRFgNITiA&#xA;&#x9;&#x9;&#x9;&#x9;&#x9;&#x9;&#x9;&#x9;IAUH8D38CaOQHYUFIjm4nCcd0iMDEn1NQhI5IID6RXJMTkiU9Oof93iDkyj9Ml19swR8sbGmNxqT&#xA;&#x9;&#x9;&#x9;&#x9;&#x9;&#x9;&#x9;&#x9;DuWJdJjO5mIJpTC3kIuZORBPZOPzTDywXCrvI+ClpRciGqbvF0bnhwlIRUQ0nirclvUMVw46Vw6z&#xA;&#x9;&#x9;&#x9;&#x9;&#x9;&#x9;&#x9;&#x9;lUlQDHTe8coTlazAKOQDry6JNhAeH9PVSn3lapGGzeBh/01zazBnTMHlYHx3JqhAOd9avvOsPdN4&#xA;&#x9;&#x9;&#x9;&#x9;&#x9;&#x9;&#x9;&#x9;MF5d96ZRKp+dWZoCmdjbP09f3d95Enwaf39soxzGxYX0Fmi9212qbo9zu+U8xgb0d+R1EUKzeHmN&#xA;&#x9;&#x9;&#x9;&#x9;&#x9;&#x9;&#x9;&#x9;DnFK1y3JjfT/8/VNwtQ5zbMff0bjcGgOz/o4iHHgGEhWqVfj/oVOzjkmKouEeU1p+PfHF3a1qqEr&#xA;&#x9;&#x9;&#x9;&#x9;&#x9;&#x9;&#x9;&#x9;L0Qnv44mcJ5fwXn6mbNps9TR7LbTd/aoNHD7lPqeAhSuynmGg91AcRWDKttT6mhG3fRZd5JNEhWO&#xA;&#x9;&#x9;&#x9;&#x9;&#x9;&#x9;&#x9;&#x9;EQWInuOLrDX5mhvN5sQ4fGT3OdrcnEyaTTEJzHpdeRSwJOK+EmEPlSTbceMG297vIMc+qarY0zg9&#xA;&#x9;&#x9;&#x9;&#x9;&#x9;&#x9;&#x9;&#x9;WoRBonF62M4EPYgdE5w2uvJVAIe9G8SIOJt+97PRxkgUASbgmCEGPTzAId7Hlzhm4w6OBGzAzIlX&#xA;&#x9;&#x9;&#x9;&#x9;&#x9;&#x9;&#x9;&#x9;KlVu/VVhybKwXoHboGxmqxQno+1qJStDISqaTdtyWkkzaYR0Kw1JcpNxIwNDFagNpgsO79WYCVIb&#xA;&#x9;&#x9;&#x9;&#x9;&#x9;&#x9;&#x9;&#x9;Nfl5MqmZGkbBYgPxeszKajVEoINADw1QiPbRJYqhQ+/wA4eH/9GEEUPlwIWQ3FQN0K2lr5v7hduk&#xA;&#x9;&#x9;&#x9;&#x9;&#x9;&#x9;&#x9;&#x9;YHTBy38AAAD//1ybz2vTYBjH865bss60TZeRmaRrUrauSV6JVFjLaKCZm3pyeJlTPA3RkwfxD5D9&#xA;&#x9;&#x9;&#x9;&#x9;&#x9;&#x9;&#x9;&#x9;AWLnQbwI7rijljErXnoaXip6EQ8eREQELfQwD4LrfJ4n6VZ2eXnzhjc/yOd98n2+eQIr440gjpdf&#xA;&#x9;&#x9;&#x9;&#x9;&#x9;&#x9;&#x9;&#x9;h3ARUladoiWhxmK6bnRPVxMe01+pHNf+A/2uV6t5XlB7qJeX+svLvpmU8kbOSbOpsce4I/C8Wr9w&#xA;&#x9;&#x9;&#x9;&#x9;&#x9;&#x9;&#x9;&#x9;aF9fBNyNYI1tPD1n65m5+8LI0e3+ZdYYawDbLusNvTvOOCqlfaqFT/lgF4M+dWKIvw4g/hyqEcXR&#xA;&#x9;&#x9;&#x9;&#x9;&#x9;&#x9;&#x9;&#x9;CpjA4ZTVOurTFOj8pinQ+UJTLJySxCmWILolpFp2QrRHHVcz3yvC+W4HfVDlUyeGl/MBvnwfsrW9&#xA;&#x9;&#x9;&#x9;&#x9;&#x9;&#x9;&#x9;&#x9;5wYTdcbxedSrCynehJAa8mt8i++kd2a2uWjDxiZPKDDygSeMcadkL5XyzoqOtySuqUbS003blSWt&#xA;&#x9;&#x9;&#x9;&#x9;&#x9;&#x9;&#x9;&#x9;xdJhShEEWYIzZ16oTEUrMfAiGMIrCwmfT08bQEHENpmpeKfQzlnWls0yNsM/Dnp2wrbJb20d/YEc&#xA;&#x9;&#x9;&#x9;&#x9;&#x9;&#x9;&#x9;&#x9;Gd3Wpsc/FpAM+uCPATUuzFhVLt1Z+XH1ABgBmYh2az1ajS/FjrlLVHYf3MQqwKjwb3GSx7+HUOBV&#xA;&#x9;&#x9;&#x9;&#x9;&#x9;&#x9;&#x9;&#x9;cvl0ZqaYy1g5lk+bqM/YIGODVw+kbOaupimu2Bov74UCcyXFbEm95j0lQ04CgBX7CKfgGvpUFJXh&#xA;&#x9;&#x9;&#x9;&#x9;&#x9;&#x9;&#x9;&#x9;DTHm8CDggNLmu+1bN8oFw8xuFM762glpDdrt8aBv/7v76/vF2dkLKWm9uP5k5NEzXiDamJAVhFEZ&#xA;&#x9;&#x9;&#x9;&#x9;&#x9;&#x9;&#x9;&#x9;Imk18XeINW6Q/NCptclyzEa1FNTCCNKiYQva5CfxhJ2QRyKlUvItFsuTUQq9IgkWn/SHryGI/kCn&#xA;&#x9;&#x9;&#x9;&#x9;&#x9;&#x9;&#x9;&#x9;+AOd4mNsxgNApx8qNKSwrDU6PzFtFB06ESYmb0GtzAsLwOlkhdRKpSrM6zJdmoyFT0k5RUsh8e3V&#xA;&#x9;&#x9;&#x9;&#x9;&#x9;&#x9;&#x9;&#x9;hIieZpfHIuaQt9ttKr8+kTG8vQ9xGFjm5f8AAAD//0xbTWgTQRTemSSbZHbMzOan2U1JZtOk2VBh&#xA;&#x9;&#x9;&#x9;&#x9;&#x9;&#x9;&#x9;&#x9;E1rTZrGatmr9wd/+UHqQihcv1ZqAIFShnnorBfHSHnrz5EEpQj0IpZSeFHoQxIuIQqXWoAf1IBKc&#xA;&#x9;&#x9;&#x9;&#x9;&#x9;&#x9;&#x9;&#x9;maS0sLvzlt1l2eHN977v7XvFZipIotwr4jIXhlUK+PY4+AQtaot4mSzpy+EltuKuIuSabmKKTulT&#xA;&#x9;&#x9;&#x9;&#x9;&#x9;&#x9;&#x9;&#x9;bJrO6DNsGQb3UnUG54KPQlueLbILd0ld/xEOVPSKUWFlq+IOkxq6RwIF2EWtTitXcMugTP0xOg5G&#xA;&#x9;&#x9;&#x9;&#x9;&#x9;&#x9;&#x9;&#x9;6JjlzdAJMEF26G/qO6+fYxvBDfQF+eLBNsqSjJ2BQ0TVdBI5ksBJkgoxddQz7h31TdIxfSyimiSZ&#xA;&#x9;&#x9;&#x9;&#x9;&#x9;&#x9;&#x9;&#x9;TLFR6G0FkkKvIf0fUA+yS3yOHmCAZ/k6QqppY8xf3WJXMtWa5pO+IyODkAYyMnDjr4wMjuOWD3iV&#xA;&#x9;&#x9;&#x9;&#x9;&#x9;&#x9;&#x9;&#x9;pFWCT73lIU1SKtnKyKdsnBIA9XAkQk2WSJkOp0p2B4LBFBJMyc702oXBUqr3tFJQNI5RWYtFLQAt&#xA;&#x9;&#x9;&#x9;&#x9;&#x9;&#x9;&#x9;&#x9;xrlpEcAoAFAUbbEI8NqQIEoN1Kco8TXwfeCigd9oGlK595umgbQinsPwJwbb+BOGd/G6+P8Wj68Y&#xA;&#x9;&#x9;&#x9;&#x9;&#x9;&#x9;&#x9;&#x9;wEgwF7icWinZQkFxqPNcFgb5rjpgzll0oHOj7K6B+6vpp3ckDFRr10XnF61fprU/wvzFJUv1UKVd&#xA;&#x9;&#x9;&#x9;&#x9;&#x9;&#x9;&#x9;&#x9;Xax6U3yykH7ccWh//3zIMY6GHtLN+UDLUPgNRium0Dqg683jvLi26feLvotarSp+z9VAUxYpVaUq&#xA;&#x9;&#x9;&#x9;&#x9;&#x9;&#x9;&#x9;&#x9;s5uUL5soV2Usz/Ul35MD3PHyxIWyKsXVxKC7pDkEm4MoRXjBkUgmSVsuOymq/wY0QC2PzecNI+H/&#xA;&#x9;&#x9;&#x9;&#x9;&#x9;&#x9;&#x9;&#x9;nN0htTPR5rHz/Gx12rRFLOuR/K67ordaAnShtkrHcnYpHVNVvz8i1ZiIa7IJFew3uHX3HTA/AUFX&#xA;&#x9;&#x9;&#x9;&#x9;&#x9;&#x9;&#x9;&#x9;di/gQDoHFkZuD+7t3ewoZs2TjVO59nzjq+lcajjDmZhGQlYi1qUD6lv4V313OoxxNAktCzrHPzTe&#xA;&#x9;&#x9;&#x9;&#x9;&#x9;&#x9;&#x9;&#x9;z6YLIZTNglgk3gNuNbYnywbIZnUtnr7mGVo5265nBEad4GyPcIyKgWeHuV6cUx3J9aJYBf5W3lOi&#xA;&#x9;&#x9;&#x9;&#x9;&#x9;&#x9;&#x9;&#x9;DZBoA7AQCAJwuPFNaiO8T+ewIH0Carjx8aV4Bvteez7/BwAA//+MW0Fv0zAUtpu2MZXbqGpnQ5kz&#xA;&#x9;&#x9;&#x9;&#x9;&#x9;&#x9;&#x9;&#x9;qYkob8DatDGCDSmpNDGpp564DfXADyi77rJfgHLnwP4B1YS0G+phd/gpExckkBD2czvaG5fmxbUt&#xA;&#x9;&#x9;&#x9;&#x9;&#x9;&#x9;&#x9;&#x9;R3p57/u+90KYCS0+adke0lYbY0t7xwzY4DG8k0UdPrqxyugG3+m1ELG1scjXMssI8VeKqNNCMVXZ&#xA;&#x9;&#x9;&#x9;&#x9;&#x9;&#x9;&#x9;&#x9;QzkAxl3YQ8MBMM6l2KIsGdb6bDS6LuRS3kpPogj5OrXX/PDlUUrlVf3d86mkuZzKmZzLQl6aiT6H&#xA;&#x9;&#x9;&#x9;&#x9;&#x9;&#x9;&#x9;&#x9;0J90KYTVXtTu1cetsH1sjuRXa4TGdb7axrW06KO04HTK6YzPecEv+S2v8CuxAaEc8che/QNNp/Q9&#xA;&#x9;&#x9;&#x9;&#x9;&#x9;&#x9;&#x9;&#x9;6pL0zGCmLzuk4jPESn7t7stIug2O1k5z/iA9+ZNlB53G3v3O4yZtVj78Hr95oRAIefnHEwT5lHDD&#xA;&#x9;&#x9;&#x9;&#x9;&#x9;&#x9;&#x9;&#x9;oH96n8nIK29kJqmRQQ8wMyWurY8FIrIM+cDeRSoGhr7A0BcY+gITSLRXnWBYHxbrtCPWbU/CKl6P&#xA;&#x9;&#x9;&#x9;&#x9;&#x9;&#x9;&#x9;&#x9;7HRBFC5WuJHCLRQgzwZMYbBOVeCCJRounRnjV16zK4DsluIBvoUJ4qlkWP9qHMw2MHcd887vxUE8&#xA;&#x9;&#x9;&#x9;&#x9;&#x9;&#x9;&#x9;&#x9;9DtPS5ZpZ/2+61I2qaq5zbWfLFe29QzjeTf4s6nJ52/7AtVA1NsStPEAids/iBl6I0NvZEipmcAy&#xA;&#x9;&#x9;&#x9;&#x9;&#x9;&#x9;&#x9;&#x9;tMAhweyQEDolCmcqHFD4p8IHxUr12oGN8ePazgDQ6f/SbpMlDrXh3Uxb3j3QUz3Tc13oyrMyzdG+&#xA;&#x9;&#x9;&#x9;&#x9;&#x9;&#x9;&#x9;&#x9;MHcLXV3o77q00HRmBpbaU0xAGDgKDhDGky6DsDGJFISRo+BJb388CJPjXRINR/jEcRQFQaMmRewX&#xA;&#x9;&#x9;&#x9;&#x9;&#x9;&#x9;&#x9;&#x9;jC6skjVnn9g3VmaWgj+EkYr392AKM5hD+QIK+AsAAP//2qDJzKApoMmkCZ7gEhEz0UwwgXTDtYnv&#xA;&#x9;&#x9;&#x9;&#x9;&#x9;&#x9;&#x9;&#x9;hgtJSDKzsahKMovLMLKySbBKwTrhkA0dsYWgNRqQXrgROz8Xk9QODh5gOc3EriTAy6yiCl4EzM+l&#xA;&#x9;&#x9;&#x9;&#x9;&#x9;&#x9;&#x9;&#x9;AspIyB1xnN1w0MYMJEFEVjNm9F44yTtHQYyP29Dpn7WwgzEXi6NveRk3n6H3P2sRN0NgF1xGnZ9R&#xA;&#x9;&#x9;&#x9;&#x9;&#x9;&#x9;&#x9;&#x9;RJvp7SHvMJuaf5Xh8pLgDji/P2N5bWHTP9lYMVlpFRX3FMaQpR5SoCYjsPft+v8J805gzuRnkGXS&#xA;&#x9;&#x9;&#x9;&#x9;&#x9;&#x9;&#x9;&#x9;RcqbMsCCGFymgqeaoO0xAdCSQx4pFlBuA0mCGA7CIEEWsDIWcVUObgFVBnD6hy4VgvQuENPNnCB5&#xA;&#x9;&#x9;&#x9;&#x9;&#x9;&#x9;&#x9;&#x9;kDopkGZpUCqUYhEBp1ERHgFwGSoALkBZwCsaQUwWFjkeHsi0sSAwNQqAkqPAWW0G2ASTq1CDKONy&#xA;&#x9;&#x9;&#x9;&#x9;&#x9;&#x9;&#x9;&#x9;sW1iRxlPch6RvcnJJvSci9GD01UsXLSVsYezk/+mNLu8g5EpC3i6eL484zHRk1JMDvKMnhww1wiB&#xA;&#x9;&#x9;&#x9;&#x9;&#x9;&#x9;&#x9;&#x9;NyRpA+tuf2DiZWG8ACIDWBJYClgmsGxgYWN5A9q8Zu/AMx/YPIHPlIJW34EGdbS9N2gEe28ICIza&#xA;&#x9;&#x9;&#x9;&#x9;&#x9;&#x9;&#x9;&#x9;yCPnuVGexTMoKmIvaL0hAwsQy/8/YGFhEekcsYdBitmIgYVBhNnopcBLaSQusEKKRJwWYMYoK6TK&#xA;&#x9;&#x9;&#x9;&#x9;&#x9;&#x9;&#x9;&#x9;p8akKqPGpcqmJsgvosAgyyilwCjGCWRJsANZwrwCCozSzEBClFtcgUGSFUhoI+86AqZR0Ho7YOoE&#xA;&#x9;&#x9;&#x9;&#x9;&#x9;&#x9;&#x9;&#x9;plNG5wgHwVKmUrYqriq+KqEKsVKJUhmO2EhgIwY0lswpIyBoKQ3EoqChZG7IUDJobopBALyMiIGd&#xA;&#x9;&#x9;&#x9;&#x9;&#x9;&#x9;&#x9;&#x9;Qxy8+YiDG36qAKMRdLMRZMehmThovklECDqay8RwoS677Hz9+ar02jPBptlO85sS6zLdmdfPa19f&#xA;&#x9;&#x9;&#x9;&#x9;&#x9;&#x9;&#x9;&#x9;/adhaffaup/ljvbzak78u7fg8JeeBGBv+ec/L+ZdwLSozmDJFIyUFjWtwatejbi0QBRoqBE02ios&#xA;&#x9;&#x9;&#x9;&#x9;&#x9;&#x9;&#x9;&#x9;yaDArCkMLtWFFcCLXhVA46bQlUJ/AAAAAP//ZFxNaNNgGM6XdEmTrmnSbmuyQZKtpl//bLu0q2wV&#xA;&#x9;&#x9;&#x9;&#x9;&#x9;&#x9;&#x9;&#x9;F2EgOtgULxvbdMrwMCp187SLHTKGetG7Zy+7eNDhdhMP3gQR8SB4liH1rsj0e9+0c1MCIYEkvIeH&#xA;&#x9;&#x9;&#x9;&#x9;&#x9;&#x9;&#x9;&#x9;J8/zvc/7IZNjkCiKzkfI5OMhVRyEpmkSRIFhGkVXrc2LEvpkmUNe5whDL+PsyXapjRT+12F8YYZD&#xA;&#x9;&#x9;&#x9;&#x9;&#x9;&#x9;&#x9;&#x9;e8uounQiN7TPeb9/7QJQPQUwi+EfRalPsOoQ1wlk3YQT/FXQxX73h1DPO+ypjKhSjpgqKyYC1UAB&#xA;&#x9;&#x9;&#x9;&#x9;&#x9;&#x9;&#x9;&#x9;gIRJLeBacpSXeN8JTOQB9feUOqB5XLuoLWgP9dB2gdQLk/XpwkJhVV8t3A1v6BuFrfAz6SD8Q46W&#xA;&#x9;&#x9;&#x9;&#x9;&#x9;&#x9;&#x9;&#x9;63OV+WqjGvLrpBQWMtl4wsla5vZIImsZNMXR4VlqcVN8PJ8RQkWtRqASXoKaTEP1Rm3licIvK5vK&#xA;&#x9;&#x9;&#x9;&#x9;&#x9;&#x9;&#x9;&#x9;c0VQvjk8Wvkhx7kM8cHNYQKxuyBq1zO8PPFmuiM3GMkCz67j3hzMibfXj4JA+bygwnTe2WCMqjQm&#xA;&#x9;&#x9;&#x9;&#x9;&#x9;&#x9;&#x9;&#x9;RcNuNd2bLrtjkueQUpSdKnLNIaORovPPGBV2QoB2XxBJrO2Fky8boqQW96Svuw01kjSDQRlT7cS2&#xA;&#x9;&#x9;&#x9;&#x9;&#x9;&#x9;&#x9;&#x9;2cEQK7iV/m6TNOhN0K6sqQwcW/LsCSgYAt2dXVt4Mpi+8Hj20eLagzs7l2oZLzk+feiYZ2iiX0tZ&#xA;&#x9;&#x9;&#x9;&#x9;&#x9;&#x9;&#x9;&#x9;hkuqsnr76sq5K4v+XLl0Shhf/7Rxo7H1sf201R87fXhwrWK5LhmIjK4IN+fLhto63GmmJuZmbu1/&#xA;&#x9;&#x9;&#x9;&#x9;&#x9;&#x9;&#x9;&#x9;WJsx4kGPgX/FsJ8hn49nhnKIfNFO6hRFDDVsoiPkdbzXUc7odlf/2F3lYgPGsHNn9+FSEUodGwa2&#xA;&#x9;&#x9;&#x9;&#x9;&#x9;&#x9;&#x9;&#x9;Ivggc5LGgAn22+DSDP7qLG3SFmXmQjJ6BQbBd0woLzGX/fo/9QIrndrJBkEKPpdm7zbllszL7AOG&#xA;&#x9;&#x9;&#x9;&#x9;&#x9;&#x9;&#x9;&#x9;yCpF+OsYmYMafyL8bVDwQPRwgfkB285lj3lSZsEgP7B0pDWG/KbDOzGP92I+78fuhyQ/R67niA3Y&#xA;&#x9;&#x9;&#x9;&#x9;&#x9;&#x9;&#x9;&#x9;HdGzVnI7RalzPm3RKU6J5PQ+RyN/AAAA//9cXE2I00AUzkuaNps0O9nYrU22prOb1OlPNrWNrCyo&#xA;&#x9;&#x9;&#x9;&#x9;&#x9;&#x9;&#x9;&#x9;G/zDX/QmK0QLelKRWgUVUXpSPK2gF/GgJ/GmrpciLHgoqPiDB3/wviwKLoLsVdeZ6fqDh+QNeRDC&#xA;&#x9;&#x9;&#x9;&#x9;&#x9;&#x9;&#x9;&#x9;8OW9N9988xI51vBi0qAL5WlJElK51eqRJERJSAaFClSEIa9QKGDo4OtYFLCBH+Kn+C2WcbN874+6&#xA;&#x9;&#x9;&#x9;&#x9;&#x9;&#x9;&#x9;&#x9;mnFKG432/On2yoGR9mI8tLq/dSj8Qzu2aR1AwTibzVk85efUUrqrrHp8Qiql+BqNopA3Opj4rbbk&#xA;&#x9;&#x9;&#x9;&#x9;&#x9;&#x9;&#x9;&#x9;sPqb6/9fje09c2HDzvWee3DYHB5ft0rfsvlndceYpcq6axeICsPSgzdvtvpkYnumfPjnrr2EJnYv&#xA;&#x9;&#x9;&#x9;&#x9;&#x9;&#x9;&#x9;&#x9;a7hDB+Do3U35Ph90bHlefE8xVU8c/wdTJOSYCiOWt0XgnDpwTh3QiK2QNHtORhFjIZkPsRDaYH5U&#xA;&#x9;&#x9;&#x9;&#x9;&#x9;&#x9;&#x9;&#x9;TykEjSbMqgwXZDgpg1ysAUAlZZ1z4KgDThHb0LRbtmibmjDVi2OaHWvUUhMzuSODEa0IXr97bbzr&#xA;&#x9;&#x9;&#x9;&#x9;&#x9;&#x9;&#x9;&#x9;x9A/CGqMIqIkKlnHDGSxUk/1X2OZe2Q4IV+URblYSW1z4Jhz1hGdoqkB+8Lvkc0QhVDYsJVBXhET&#xA;&#x9;&#x9;&#x9;&#x9;&#x9;&#x9;&#x9;&#x9;kxlCwsZKrOz1bY9pzGJ20VV8PGX0uOqd0x0jUXnAt3zRNINIm/RL2mQuM50+tPa2cdOT1ZRaUsvN&#xA;&#x9;&#x9;&#x9;&#x9;&#x9;&#x9;&#x9;&#x9;sBV2wiQKu4CjqzTsvtRfDva8XvGj+8H75C8kFtwF74uvmVN+7J8av+TPwIw4I3WGWb+ETv7a+Eyg&#xA;&#x9;&#x9;&#x9;&#x9;&#x9;&#x9;&#x9;&#x9;I0CiKg2kk3nVfz72wlXyUjZj5rNrrPKIf2vglnob33BveJpZ1Uv+bn9/eCQ8Xz7vXxm87z4IP0sL&#xA;&#x9;&#x9;&#x9;&#x9;&#x9;&#x9;&#x9;&#x9;+XRZqTvCnOhAAWogQheqs8Jc0AU7GqrkHGtuxLELNhg2pjPHnNZcljnHTNNzdS2BCDeyA8+EoFap&#xA;&#x9;&#x9;&#x9;&#x9;&#x9;&#x9;&#x9;&#x9;CwKbVPuyZeWYhDqTrbGJFV+ZACbbRv/GVBJSJtJaCJqoha4jCXVhIrKIbQUFBRT/DoEmaZEOkTBZ&#xA;&#x9;&#x9;&#x9;&#x9;&#x9;&#x9;&#x9;&#x9;R0TyBLDQAPxoz+8faN9ie4kX2j+YYmx5FOLpyRqtOGaXgQ55A60ldiKb8/rzRj/ZshutV1Ra83u6&#xA;&#x9;&#x9;&#x9;&#x9;&#x9;&#x9;&#x9;&#x9;ltF17epgwKmZ6ZxgfF1ajNv8BG5/zIcrDUwCPKCvF6q8gckvAAAA//9cXM1rE0EU39nNZtvsbrO7&#xA;&#x9;&#x9;&#x9;&#x9;&#x9;&#x9;&#x9;&#x9;s5tkv9LEBJvWTVIpiitC10MtFqQKYikY4wcelB6sIB5E8FoUCXrQWDDi1YOliNSDtEIPghb7D/hx&#xA;&#x9;&#x9;&#x9;&#x9;&#x9;&#x9;&#x9;&#x9;KNKLWA/2UlJ9M9utrYE3OySbeUPYvI/f+70JnFJvd05R40K3mndQvLfDgb951mGEEu+g0J2Ejdmk&#xA;&#x9;&#x9;&#x9;&#x9;&#x9;&#x9;&#x9;&#x9;O2hDWFfW1Y1SrDaOrjOTpEEhMFuoxba4lvhEbhgNq2E3nOaeR4VWWYLAaR+pwxN+QSBWC9XiXW+6&#xA;&#x9;&#x9;&#x9;&#x9;&#x9;&#x9;&#x9;&#x9;OO3xtXESTqmlnOl3lkwfBQmfBbFD8ppF6z0JvwJveVQ6fUnJaoNdOTJA8DBr+/Ri+sWQAlgIL5Dc&#xA;&#x9;&#x9;&#x9;&#x9;&#x9;&#x9;&#x9;&#x9;r77GvpfB4VpauFZSAxUaqNB8L6eR76wFySTclvQ5RQY9MllgLdBk0CPDPSAZlcr/LRK7XyjsmRi3&#xA;&#x9;&#x9;&#x9;&#x9;&#x9;&#x9;&#x9;&#x9;A5llK5aVquwXzEQfPyd8fzXRJ2hZmMxOaNuUW/Ufr1wN25RJZT+9fSQFWLWCOhD1rBV7IiScJD5s&#xA;&#x9;&#x9;&#x9;&#x9;&#x9;&#x9;&#x9;&#x9;I7/35tljZ3Ld9Qcf3t44PZE30nI+7zy9ODR2YfNLuTx96+CJAVXRJO7l5vuHV0fKh0q9leFLz283&#xA;&#x9;&#x9;&#x9;&#x9;&#x9;&#x9;&#x9;&#x9;swkLDd+7f8ofOtc47I9NPk4nuzJg+fQ/v9gjsXeMzZZ2cu3cQAPL59LSiyhRCEAyMOIxnWLqInFU&#xA;&#x9;&#x9;&#x9;&#x9;&#x9;&#x9;&#x9;&#x9;ucdRPQaTX5CiE1js8JIpPUZIdgyKg49sLy9VfyxuecfPEB1Wd1s1Mx0yZuho7JjbBAEnEyuamARz&#xA;&#x9;&#x9;&#x9;&#x9;&#x9;&#x9;&#x9;&#x9;p4DTNRGJSRsZV3R0XEdUXQAPMOgWbcTTYJKn6TxP/SuPQwAjTndKPSuO0F6MXWdHOk+ZtoPt5Vpt&#xA;&#x9;&#x9;&#x9;&#x9;&#x9;&#x9;&#x9;&#x9;QVlSFmtRxQweBvsNI8MGjkp+HdVZdtBtqk1z3phPzZmrptBy0ZSFRqVRuS7V5d8ZyIWNTE+GSxkZ&#xA;&#x9;&#x9;&#x9;&#x9;&#x9;&#x9;&#x9;&#x9;0+IQGXT7GeKM/q3dcv0si+LSAbLp1Cfjq/HT4IzLuv2REQkG7OXALVeq7ozLugxCsRhf1E9idAcj&#xA;&#x9;&#x9;&#x9;&#x9;&#x9;&#x9;&#x9;&#x9;cpDRDF7Ay/gbjuPzzoupKJRsh41NNXqMFFgXSNzbKyGqCx+tIHDMDIgGFp3QZP4CAAD//1RcTWsT&#xA;&#x9;&#x9;&#x9;&#x9;&#x9;&#x9;&#x9;&#x9;URSdNxMnb+bJJPOStpPJpHnTZDL9NGhMg1L6Ia0Ev1pwYasL0SIoVFAEV4L5AS4UuhEX/QdSi9Zu&#xA;&#x9;&#x9;&#x9;&#x9;&#x9;&#x9;&#x9;&#x9;7b64ELvrRlxJ6sptSt+9k2kjyQxDmHkQOMw759xzL87GAYq4nSfy3UYSO8n25zWipyh2+aS62MWE&#xA;&#x9;&#x9;&#x9;&#x9;&#x9;&#x9;&#x9;&#x9;C+K21leycUxKo4bp8Qrk6iYhu0Ku7e/Xhv1pOyy15s8tj75rvJgYGEl8O/pxtfNxZXpk+OFq7f6q&#xA;&#x9;&#x9;&#x9;&#x9;&#x9;&#x9;&#x9;&#x9;+tjvf9KsPJL4U6Wq7mjrSqAu9+CvP0S/i3btTSaGscPhhJOJwa52+R1V/YSLN7rcg/t4DEweqxx5&#xA;&#x9;&#x9;&#x9;&#x9;&#x9;&#x9;&#x9;&#x9;8Q/L17wcixrLCXQmLEcvjFssCSnZLyBqqKlUD8YgkSmJy0z6sB0X/6pxN0QPl7uTjOLDGjWZYI5V&#xA;&#x9;&#x9;&#x9;&#x9;&#x9;&#x9;&#x9;&#x9;DgbkqtGSjFD0P83I/0RHVLjohrpI81wTFT2ntCIQo0KPmiMqHBxcuIXH1Wq4QJRyHla6KAWBD6c0&#xA;&#x9;&#x9;&#x9;&#x9;&#x9;&#x9;&#x9;&#x9;emN7GCYF4SDhimRQclLMhtdJCKaTCGH/2QwTF1mjeFk0i01xxqWZRdA0/uJgEJZoSOaSg3ResKBA&#xA;&#x9;&#x9;&#x9;&#x9;&#x9;&#x9;&#x9;&#x9;d8jCbMZUgkBuefB/LJOZjPnY4mApm4SkyDOyQb6TBMFgB8+5Zc6XMm8zakueNjNaNGcrAqiEZ2X3&#xA;&#x9;&#x9;&#x9;&#x9;&#x9;&#x9;&#x9;&#x9;9f9cEUabdaamcPgcThqBDxqAJ2wRiox5L2V7KddT0nY+XfAUNJVwchaqmq2yMyCJ5Ne1wNFNZhV2&#xA;&#x9;&#x9;&#x9;&#x9;&#x9;&#x9;&#x9;&#x9;6NktqWuiAmMt4pI9zQwxXCV9TNb9LohtqAFoqym/vxhaR38nXr5auPl83Gs0ydzKzNjT65fuauud&#xA;&#x9;&#x9;&#x9;&#x9;&#x9;&#x9;&#x9;&#x9;nxvYwrDburLypkXez13Ik6DzobU0eUNN3mqoAVQVJZYPJZaF+ucUy9uGobhcz4IFastDyEPVfn1S&#xA;&#x9;&#x9;&#x9;&#x9;&#x9;&#x9;&#x9;&#x9;oER32G7PVOXOVD11fc47ppGnhjHky+dYFg3NbEa3R1EacF3FX+QbQ+CFgHX2xk6/UVyverCXxo6Z&#xA;&#x9;&#x9;&#x9;&#x9;&#x9;&#x9;&#x9;&#x9;WYPfNpedezktB31crD4Eu+GDvno2l3VLxpDp2+IYAAD//1xdXUgUURS+d/68967r7uxuOnNH13F2&#xA;&#x9;&#x9;&#x9;&#x9;&#x9;&#x9;&#x9;&#x9;dV3W0GStVqw28CfNKDAqgjAoiF4ijJ7SMKisIKToxUgMIbJe6sVVE0oM6q2njIgeDEGMKHooQU3t&#xA;&#x9;&#x9;&#x9;&#x9;&#x9;&#x9;&#x9;&#x9;3BmL6OGb7zBz7zAzzLlz5p5zzwnFDdu0eT3NsPpQxqgz63kbaaWNrMloMlv5aXKPDNBBftcach6h&#xA;&#x9;&#x9;&#x9;&#x9;&#x9;&#x9;&#x9;&#x9;EfKADpvDfMR6TkZpjuWMMfMZn7SmnBljkS0aK3zzEMWOGxNxPO1yaovH0aTHLS0eJxIex2Ie67rL&#xA;&#x9;&#x9;&#x9;&#x9;&#x9;&#x9;&#x9;&#x9;2axZnA443agLd0ln1W77knpF73doPUmztJGxXmlTZe953jV23egz5W2hPYYUNiLRMLLsKAoxPQra&#xA;&#x9;&#x9;&#x9;&#x9;&#x9;&#x9;&#x9;&#x9;cjVbRblpG6ZZQ1mEUmZxHqcEJDf5vkLANAyHwHxDGjd9xjiGD14nw0EWZ0Msx94ylfVQS7zswaxW&#xA;&#x9;&#x9;&#x9;&#x9;&#x9;&#x9;&#x9;&#x9;fZ9MkDeg5T3UPM/FAlkbUbjeQChNNwI5XQ9VbZ2gsfw6RKfg124cv8gFHdzreE8DWgnOBcLpMjFU&#xA;&#x9;&#x9;&#x9;&#x9;&#x9;&#x9;&#x9;&#x9;m8FUSuS4EOMKXzXmTdAN4wf/KrjL8FJ0ejohxus+z6zrUzdcbymw74Sv7d+tcFAcE6FOG+sIhIqk&#xA;&#x9;&#x9;&#x9;&#x9;&#x9;&#x9;&#x9;&#x9;sAiBHGV2oX8XDHILY8A07hNhJLNgLTERdMfCGWKDuQTY8K1hb1Ir66cchTTus/WIjGR3pgDeNy9S&#xA;&#x9;&#x9;&#x9;&#x9;&#x9;&#x9;&#x9;&#x9;SlgyXtY0z4YJh91JgAqRmkGDPzYcwyK4OqHjJ8WJ5KaZd0XE56RxKh2JFa9NJtcmCitL9Vr5TnmF&#xA;&#x9;&#x9;&#x9;&#x9;&#x9;&#x9;&#x9;&#x9;HatZ0yT/9pICGvCVlyt6tPnXN1ndWh2kBLnJ2LXlTyt51cudgYafxCRu3YnhuZLpPzUoRPSIOqj2&#xA;&#x9;&#x9;&#x9;&#x9;&#x9;&#x9;&#x9;&#x9;g0jd9m6vvLK1JnT4b6EK/F/hinItg4slJKZ20RnpMeoAviVlkKwg1Ab4DqgCHAG0A7rh2FP1EHIA&#xA;&#x9;&#x9;&#x9;&#x9;&#x9;&#x9;&#x9;&#x9;beprFFPmUFI5hxzgnfJN1ApohnaNwO1wvv0g7wD4oV+DlFk/AbIOstiXD2hS0PoStPPLJegk7I8o&#xA;&#x9;&#x9;&#x9;&#x9;&#x9;&#x9;&#x9;&#x9;4lJ0t+ziXvRQFJ7EHXhV6pYvKAeUD+qSto/kkVkWZdO+j/mDBZNBrF8M34gsFJ0yC/llazLqLyX2&#xA;&#x9;&#x9;&#x9;&#x9;&#x9;&#x9;&#x9;&#x9;jGPFBuIvE9nK3uR86rZ71xXoqFis5N5q0C0ohtTPyhekImk3Qwfl3wAAAP//RJ3bSxRxFMfP7llF&#xA;&#x9;&#x9;&#x9;&#x9;&#x9;&#x9;&#x9;&#x9;JXdWSSNNx0ryEl4YogsI7oq+ln+BSqaBJgrb5aHd9qF8iAKF7P7gFkWRRTWDZkXoWxg9+BzkBeoh&#xA;&#x9;&#x9;&#x9;&#x9;&#x9;&#x9;&#x9;&#x9;yPQ/sM9vdqyHz/me229n5uzMLMzD7Gb4lVSJrX90Q9rQDTe/yp7X35422u2JMv0hffpLpvWnrEJE&#xA;&#x9;&#x9;&#x9;&#x9;&#x9;&#x9;&#x9;&#x9;YmRieO0whr8NeduLuu51dTnxefRws69ufYPz3hTcin3OJ10Pv5Q684hXV93ySr+y4nZ0BM7R4znH&#xA;&#x9;&#x9;&#x9;&#x9;&#x9;&#x9;&#x9;&#x9;a2xyVhNFuiKbENYVXZX63CqvvtnZShSTCOkVsbh6bcnqd3kDYYnrN6/2kDO9oF+pf9ElOeMvW3KL&#xA;&#x9;&#x9;&#x9;&#x9;&#x9;&#x9;&#x9;&#x9;Sxw+8LO+k1IOb05ng8qsFy1xJJHkGwvJInYZ1mALIjKqzyQDE/AaImJhbWiBUyajMzrDfj5lvYVt&#xA;&#x9;&#x9;&#x9;&#x9;&#x9;&#x9;&#x9;&#x9;gVGYgAiTfUF+2Fh9rkNygLU3+X0oQ2/oLV+foBXoY/LV6CNio9NB/BA19QdB/j5xOXov0LvkK9E7&#xA;&#x9;&#x9;&#x9;&#x9;&#x9;&#x9;&#x9;&#x9;/p+j2no7iC/qBX/d+UCzmnSr7ViimnoNtILiTeFNMbopc4ZgQ3pVz/lbeos66EhOGVfa3X/Q/47S&#xA;&#x9;&#x9;&#x9;&#x9;&#x9;&#x9;&#x9;&#x9;3p69TpaRphl9msmlmVzaPMDX1E5PKtfTpCl6UvSk6EkxlVZNsr2kueywMagBZe5J5p7039OcpD9J&#xA;&#x9;&#x9;&#x9;&#x9;&#x9;&#x9;&#x9;&#x9;v8lfw05C1kR6iTk2sFfXdcittznJznon4k77Rx1k1HEd5DbrTPyPCovMiYhGA7VM74BfHfAKd5ns&#xA;&#x9;&#x9;&#x9;&#x9;&#x9;&#x9;&#x9;&#x9;gFdRlVO6hhNR7ZfLEJbd2Fo4Ap0Q0X63tsX+oCdlpEDiUTsTzmgmksmLtHaGShfUkW7uTbaUapO0&#xA;&#x9;&#x9;&#x9;&#x9;&#x9;&#x9;&#x9;&#x9;Fcic3dsWOjaeTYzraXMdYmMwBpMQ4Wh7yddoD/Qyl152qoe8YIUoBsv4a2gekUWfRZ9F1iJriXlx&#xA;&#x9;&#x9;&#x9;&#x9;&#x9;&#x9;&#x9;&#x9;uOVXuqEPxoJq/r/KzhrTv2UqUEc1SjbKUa7pXwAAAP//VFxNS1RRGD7n3lEMex0d1Cit03WcbOqC&#xA;&#x9;&#x9;&#x9;&#x9;&#x9;&#x9;&#x9;&#x9;Hy2EujH3lGEOt8bdgJuJWgQhaMtW0aLAlZFRYenYBxE0MnIwEJJq1db+QS7ctfEjBMM+nvN6XcTl&#xA;&#x9;&#x9;&#x9;&#x9;&#x9;&#x9;&#x9;&#x9;eZ5z3o/zvpfLPefOZhpgxwjIY0aYEWaEqG/OLjpsBB8HhgGXbasAnh9439cT+68Btexf55h9X2hz&#xA;&#x9;&#x9;&#x9;&#x9;&#x9;&#x9;&#x9;&#x9;nd3Q7/qSlQtZOZeVD7MyDHK6L+wApVKp+5NRNfocrUSJUjQW3Y3cfntsmtM9fawdGasfzOEjff1J&#xA;&#x9;&#x9;&#x9;&#x9;&#x9;&#x9;&#x9;&#x9;fc6porMSuAx8B1yhwN1ADhgDEk4VrLC7dQM5oACUgBpkzNt3Fqxin7WX2WdH1u/853dxDxVz9kxB&#xA;&#x9;&#x9;&#x9;&#x9;&#x9;&#x9;&#x9;&#x9;X8E+VgLKgIu1K/BXOHpvVGX7AniV7YU4fo7tCryf43KO3TtGYlZADigB40CNWHGL2HeLdn2wAsaB&#xA;&#x9;&#x9;&#x9;&#x9;&#x9;&#x9;&#x9;&#x9;KpBwR3AV3aIzj6viVFw/pN4WJVpbsdenmuoadaNzEA+V5DvmZ8wTzDnmzrAhT9t5+pSnB3nqwsA5&#xA;&#x9;&#x9;&#x9;&#x9;&#x9;&#x9;&#x9;&#x9;KTQcj5m9sF7ToqaCpqwmrHZIeDjQWphrLcsfzFeZ/bDZox2Ptjza8GjGo9senfdsXjteC3Kamest&#xA;&#x9;&#x9;&#x9;&#x9;&#x9;&#x9;&#x9;&#x9;yyfMeeYTYb2ir4qKivoVaZKzEtXFBeZjzG2W5eZiciApDnyUm2IAK0kTZNWSI1jkXxNoyB8TDEJ+&#xA;&#x9;&#x9;&#x9;&#x9;&#x9;&#x9;&#x9;&#x9;m2AW8ssEU2pZ7kg+LeS26VxTukX+lEMJO9+KdUMOiffQdehN6FsRyAz0jQnu2fjXyJ/G/JXoqLPx&#xA;&#x9;&#x9;&#x9;&#x9;&#x9;&#x9;&#x9;&#x9;L8Uw55XlENtn4rwXxr+Oqs+NfwdVp4XPVZ8afw3WKeNPQB4ZfxQyaTK2wVsmOKV0k/3jE8fG3sBP&#xA;&#x9;&#x9;&#x9;&#x9;&#x9;&#x9;&#x9;&#x9;YdtJFFe8jJVHoYN7yZeMb7MGbIEledGkeyFdtstlmRbDXE6ZNN/kUZHmJdpFmptuExnWBpnk5gnf&#xA;&#x9;&#x9;&#x9;&#x9;&#x9;&#x9;&#x9;&#x9;Llb/AQAA//+snc1rE0EYxucdancoxdRSJNCPCZlsEbvFL0paDW0Im0rZHvoZsvWSZBPai9iK9lC8&#xA;&#x9;&#x9;&#x9;&#x9;&#x9;&#x9;&#x9;&#x9;9FAQpB4FEfTkpUGc3dSysQVLwavivSf1X1CP9Z3ZYiv0IhjIfD0/npnZvIHZPezLArGOLq3b5nf+&#xA;&#x9;&#x9;&#x9;&#x9;&#x9;&#x9;&#x9;&#x9;K7OrNk5+QCx4yb/t4f4K2P0KE0Gdf2mqyxXwz1YI5g7/JHb5x1QIhYDvWyFD4YMVUnjHfbzIElkK&#xA;&#x9;&#x9;&#x9;&#x9;&#x9;&#x9;&#x9;&#x9;O/yttcjfCK2+FqjiT/0qM8hfiAX+3MR+wNetPbUMchd3XEDZtUb5ZKbOx80QUM5m1NtR2/hNcZ+P&#xA;&#x9;&#x9;&#x9;&#x9;&#x9;&#x9;&#x9;&#x9;4PBwCBONOr+WCtVSrqJHfYdfxhn7BS5lmw/Nz6ff0yFiwMOsZTwwKkbBmDZuGTeMQSNh9Bo9Rhfr&#xA;&#x9;&#x9;&#x9;&#x9;&#x9;&#x9;&#x9;&#x9;ZB3sPGtnbYyxVoZ3A4ywLv1GY3VO7Grt0DmWW1TZotsdVJU0OkZSYBT/PXiP61BnNgeyE09sczmZ&#xA;&#x9;&#x9;&#x9;&#x9;&#x9;&#x9;&#x9;&#x9;HnBC42hGDg84kk3dKfoAT13sSfo4BDJXxBBVQxvdKg1VkwBc2djsVvWjjU3XBUfue8SpJOTPWdxJ&#xA;&#x9;&#x9;&#x9;&#x9;&#x9;&#x9;&#x9;&#x9;2/SCPCdycXJxdSw+1jl6YWTcPqMoHZennkjG/3o+Ge/NyWfObDEY2trqzbnyum4fHWHbkbdVHqsm&#xA;&#x9;&#x9;&#x9;&#x9;&#x9;&#x9;&#x9;&#x9;XaH38naTLqvKLTZhja7kZ9Q4rNnuH4wk6TJieJhdjrAGSSqMJKGhsUmNYbwm87afTEbQAUwoCOPo&#xA;&#x9;&#x9;&#x9;&#x9;&#x9;&#x9;&#x9;&#x9;QEOLkVcKp0CvKVUhRvtISnulaJ/CMDAis9hps3YCMW0WayfarEdBvmkiYpkK8dMmAr6Z1nL9RBZm&#xA;&#x9;&#x9;&#x9;&#x9;&#x9;&#x9;&#x9;&#x9;tByXmHoeE1w9D8AJcyliMBiOGcqQGfifn1ruH2BolA+rnsomVhL5Gn5L8snqUlxlmkn41cPjNGP9&#xA;&#x9;&#x9;&#x9;&#x9;&#x9;&#x9;&#x9;&#x9;pYq3pOpyTR6Kmi2rwk74Ze8M2VNyWdg+8fJzRd/L1uygnC3/BgAA//9sXb9r20AUPvmkc5TrD7eF&#xA;&#x9;&#x9;&#x9;&#x9;&#x9;&#x9;&#x9;&#x9;IvCgWKrBIIyNTUtJRC3bchZBbZrFLgU7BAqZZDjdGgc6dUqgf0ACxaZb1BpKyZJAty4JdOtU6Nal&#xA;&#x9;&#x9;&#x9;&#x9;&#x9;&#x9;&#x9;&#x9;hW6d+t45DQRy6Hsffp98Tyfu2WedfOq4m+FgPpu0oyuxXl/Gak+uqWyClbUx1iy6Ro5QnmGsCGNF&#xA;&#x9;&#x9;&#x9;&#x9;&#x9;&#x9;&#x9;&#x9;GGsWzFSs6FlLi3r990ukhbMAiucZvgxpMcoXBq37ufETlSNrBWsnf6wT+P7i3iC94bbSmwCUys1y&#xA;&#x9;&#x9;&#x9;&#x9;&#x9;&#x9;&#x9;&#x9;EyVIUpRu4fPiLiRrZ62QP9beXUg5cN9xW8QjVmc7vNyEEIlAI6UHNpGWciaQvIWNKF3Hx1v5qd9J&#xA;&#x9;&#x9;&#x9;&#x9;&#x9;&#x9;&#x9;&#x9;g1E4UL+LYcd+8GjoDovD0nCqx25cjEvxVO+63WK31J3qDbdRbJQaU73iVoqVUmWq265dtEv2VJeq&#xA;&#x9;&#x9;&#x9;&#x9;&#x9;&#x9;&#x9;&#x9;DNr9IHfin/mZ2J/4e/6Bf+QbC/fdE+fMyQyd2Jk4e86Bc+QwFF70Pwb+gfPLoRJ6opZA6YTqcCUw&#xA;&#x9;&#x9;&#x9;&#x9;&#x9;&#x9;&#x9;&#x9;bPgykdgQAUf3YGSOzV2T5swVs2oGZs80Yjqhe5TatEIbtEuH1MBrFdnVOl5qWWer9X1+yFN+ys+5&#xA;&#x9;&#x9;&#x9;&#x9;&#x9;&#x9;&#x9;&#x9;kbJTds6+s9/MWKzS02MjNma7bJ8dMhP/hJ4Z8THf5TTHV3iVB7zHDTurEWibAOA5kjIf5LIstPly&#xA;&#x9;&#x9;&#x9;&#x9;&#x9;&#x9;&#x9;&#x9;aNNMaJtLoa3WGPCk1+43HbIF42MNxvJlcg/gAuqADYBBPoP9CvgB+APQySuwbwBvAXP00DItd6zt&#xA;&#x9;&#x9;&#x9;&#x9;&#x9;&#x9;&#x9;&#x9;EM/BwMNPUovW5tWHtcefgDdfLnjj+YI7TxfsN2sW8IdGfbl5G4bqGjkG+wXwDfAT8Bdg0Bqtqcrl&#xA;&#x9;&#x9;&#x9;&#x9;&#x9;&#x9;&#x9;&#x9;xcIIgghPg2bhLFCCRniJWjxBw76TCM8jYnE7sgb9Sd0cejWLiSYkEYJA7wKCnZRX4Nsk8v8Cgppp&#xA;&#x9;&#x9;&#x9;&#x9;&#x9;&#x9;&#x9;&#x9;+gcAAP//AwCNTypuDWVuZHN0cmVhbQ1lbmRvYmoNMzIgMCBvYmoNPDwvRGVjb2RlUGFybXNbIG51&#xA;&#x9;&#x9;&#x9;&#x9;&#x9;&#x9;&#x9;&#x9;bGxdL0ZpbHRlclsvRmxhdGVEZWNvZGVdL0xlbmd0aCAzMT4+c3RyZWFtCnjaYmBgYGg4y8DAEfGD&#xA;&#x9;&#x9;&#x9;&#x9;&#x9;&#x9;&#x9;&#x9;of7+/gMAAAAA//8DAB4uBYMNZW5kc3RyZWFtDWVuZG9iag0zMSAwIG9iag08PC9EZWNvZGVQYXJt&#xA;&#x9;&#x9;&#x9;&#x9;&#x9;&#x9;&#x9;&#x9;c1sgbnVsbF0vRmlsdGVyWy9GbGF0ZURlY29kZV0vTGVuZ3RoIDkyPj5zdHJlYW0KeNqkjFcKgFAM&#xA;&#x9;&#x9;&#x9;&#x9;&#x9;&#x9;&#x9;&#x9;BMfee+/d+x/Rh4gfgiAYyO5OYAM/R3qwjHK6iiZU//zHuJMp1sK+yMHFwyd4bYZExCSkZOQUlOJW&#xA;&#x9;&#x9;&#x9;&#x9;&#x9;&#x9;&#x9;&#x9;UdPQ0tELGhiZmFlY2dgPAAAA//8DAGJ3AuYNZW5kc3RyZWFtDWVuZG9iag0zMCAwIG9iag08PC9E&#xA;&#x9;&#x9;&#x9;&#x9;&#x9;&#x9;&#x9;&#x9;ZWNvZGVQYXJtc1sgbnVsbF0vRmlsdGVyWy9GbGF0ZURlY29kZV0vTGVuZ3RoIDkzNzQvTGVuZ3Ro&#xA;&#x9;&#x9;&#x9;&#x9;&#x9;&#x9;&#x9;&#x9;MSAxMjM1Nj4+c3RyZWFtCnjarFJbSJNhGH6+79/ctIM6LXXTzb8085yZZlI0UDqARlCKA0NE53bh&#xA;&#x9;&#x9;&#x9;&#x9;&#x9;&#x9;&#x9;&#x9;cswpW4V0GLpSKjGi4SmMDka4lXYw6iKC6rIRBF5KXbSuIqqb9P97nQtaeGP0frzf+z/Pz3v43vd1&#xA;&#x9;&#x9;&#x9;&#x9;&#x9;&#x9;&#x9;&#x9;OrrMiMVpCDC2dDszDcdPaAGMAPxTm91iK3N4fIDgAVQ6S7u7LVhX2QDEjQP6Kau5uTVY79UAubXk&#xA;&#x9;&#x9;&#x9;&#x9;&#x9;&#x9;&#x9;&#x9;U24loleKVxM+RzjLanO6JhP9Y4RvL8Vs72hp7um/dhLIqyJ82NbssvvUhwTCQ4Qz7Q6z/eOHjD2E&#xA;&#x9;&#x9;&#x9;&#x9;&#x9;&#x9;&#x9;&#x9;pwHlYEwy4sgGYfh9/ymKY8uMPB99S63yd/wnUUd0NcKCPPcvxrLqxEG8wgvMhPUlnuExnSmMEf8a&#xA;&#x9;&#x9;&#x9;&#x9;&#x9;&#x9;&#x9;&#x9;z4lbUjve4A5uEDuIe5jAKK7iVhh5GCcvwI/LUVHP01Tn0Ulf9bDBiTMYwBDGyWs/cb0oQQXcMNG5&#xA;&#x9;&#x9;&#x9;&#x9;&#x9;&#x9;&#x9;&#x9;iyeU6weu0yZ44UIHbUgfLsJHzEO8Q4glYZFpWCnbzdN5NR9nGbyYXxI6qZ4HVImfN3GRTbBF8rpC&#xA;&#x9;&#x9;&#x9;&#x9;&#x9;&#x9;&#x9;&#x9;tc2gmyIMCAHkUE3DPMBlqnMYNfQ3SsIzd4Sn/VQZVH5ZYeazK81cMi3vyIJZnpO+SX5Fo8It9UuN&#xA;&#x9;&#x9;&#x9;&#x9;&#x9;&#x9;&#x9;&#x9;/z73ZZFDlDMFs1KTZJK55MIp9C2Y5JD0dtH40ysXyXrq9Ai9cJq6c5Z6OkodmKS3eel1N8leoO75&#xA;&#x9;&#x9;&#x9;&#x9;&#x9;&#x9;&#x9;&#x9;wrYHXUKn8Ijv5SL87DN7Tz0ZpQxzxmpT3dEjtTUHD+yr3FWxs7xsR+n2km3FRYUF+Xm5W3O2ZGdt&#xA;&#x9;&#x9;&#x9;&#x9;&#x9;&#x9;&#x9;&#x9;3iRmGvQZ6TptWmrKxg3JSZrEhPj169auiYtVq2KUCoEzFLBAalXD/TRVvk4URVNhBGujcUDITvgq&#xA;&#x9;&#x9;&#x9;&#x9;&#x9;&#x9;&#x9;&#x9;BqCJkL8AAAD//4RSwWrbQBBdOWla7BaUOC0uasuKxSfb+GpyaEyk3RBMi2MckEoPK0cGWaece/It&#xA;&#x9;&#x9;&#x9;&#x9;&#x9;&#x9;&#x9;&#x9;sPZH9BNGOZme/DGlpxZ6ydmdXUlOagoFaffNvJnZ2beTBzk7SW927Lc79rut/RHIMQjm+bpwRsQP&#xA;&#x9;&#x9;&#x9;&#x9;&#x9;&#x9;&#x9;&#x9;IHWwjoHoU6z6BzypSOJxyvgMXnuxlJjhM5uC+N0tWjG1s1rVY9602mmTrFpDWEOEsTeZJd5bBlQE&#xA;&#x9;&#x9;&#x9;&#x9;&#x9;&#x9;&#x9;&#x9;P8kq5NmLThuOWlBpcv2n0F9IBMzHSsjUH5jVZr18TBFMK1E9RxYcePDUnEtn0I+ALGjWXqvlyiYT&#xA;&#x9;&#x9;&#x9;&#x9;&#x9;&#x9;&#x9;&#x9;2Xoeszj6jMpF2GNG9po8GWsduf5lQmEfi5vFQQ/lCVVMy8ETiSvzMeuffnS/8oJbd+3AEe4cDltw&#xA;&#x9;&#x9;&#x9;&#x9;&#x9;&#x9;&#x9;&#x9;jhHnX747e4o3ZlSbSt1S+HoZPGZdvYZh2MCGFWdYEIvx9Ayv0uh22vmdCgFimeoz00j3yVOqFlPT&#xA;&#x9;&#x9;&#x9;&#x9;&#x9;&#x9;&#x9;&#x9;69L0YEJ5gg8T/S9KKR4zHkfxWV7dg/7YbGT8KTAXROn8sHAVAcjsG0b6oZuLPRgFnm6MRb6TP/vW&#xA;&#x9;&#x9;&#x9;&#x9;&#x9;&#x9;&#x9;&#x9;IwsPOnhJUt3BBRYAek2BjAKGoT29THtEXffM8LihhVnDhyx40rQZVfcELMl+/fzbExWeg6Z9TzQU&#xA;&#x9;&#x9;&#x9;&#x9;&#x9;&#x9;&#x9;&#x9;TEilBKNCSRWtNvMJozZT2WCgbrjEU4cBZq023xYOiGUItkysE9ReT4AYBaeOexiW5rA0CY4UDlbN&#xA;&#x9;&#x9;&#x9;&#x9;&#x9;&#x9;&#x9;&#x9;XAdVwO+i2FBlMg5cikJdBaGDOgUajxHnux4kHNwevnEhm9Zo2tvK4xXQdfV0LlZ9MkED5pdBblMy&#xA;&#x9;&#x9;&#x9;&#x9;&#x9;&#x9;&#x9;&#x9;ce5Iv9vC95CaWZfMyyvNzEvmDwAAAP//jFZNaBNBFJ43+U/6s9kkTXERkm5/1CBpSdOAFLoktFRy&#xA;&#x9;&#x9;&#x9;&#x9;&#x9;&#x9;&#x9;&#x9;UNvU7kZbWpLWCIoYraDUNuolBKnoxYOCKL2JsGkVE8HiRdBDwUM9iAil4LHeVLCw9c1uE/EiDrsz&#xA;&#x9;&#x9;&#x9;&#x9;&#x9;&#x9;&#x9;&#x9;8773Zt6bN28er758SkQtzwlgzvOp9s7618y1eAZzR1Ro+Qd7xuCrnoRsEqhizKhgYjNnCF96v+oP&#xA;&#x9;&#x9;&#x9;&#x9;&#x9;&#x9;&#x9;&#x9;4fxAqISX8EFUuZBqkd8I/UqAc2MGYLc3KiZPpOXAYKkeBQayd1IWBxjq4nSutPeUWNBjeABekJQY&#xA;&#x9;&#x9;&#x9;&#x9;&#x9;&#x9;&#x9;&#x9;FsOkH7cJMGBIlcR4WOdkN4lq2vyP/VUSTKbqBE3gEx8O1TKTQR+tJT2VJ0lIpvAhYCqKl0UonihL&#xA;&#x9;&#x9;&#x9;&#x9;&#x9;&#x9;&#x9;&#x9;UBxNy1UO65hiSl6hQBNTcaXcjjy5GiBE0lHKUAYyIsAIttMIEnZdXqhKhBR0rlkHdDpTAaJj9hoG&#xA;&#x9;&#x9;&#x9;&#x9;&#x9;&#x9;&#x9;&#x9;JFOhBsYZijp1RRKhyDEbHKkmbUbMbmAFHdNbmbBTSU6LZJccUgNtpEIZGLSCyCu8aQeQ1QZoBKGM&#xA;&#x9;&#x9;&#x9;&#x9;&#x9;&#x9;&#x9;&#x9;q0Z0uAKFskMSDIkCSkiGhcWxP6rH0vJqA8Fleo+K4qxhgmrNocNlMTAYyKrScXleyZWmFJYGbzL/&#xA;&#x9;&#x9;&#x9;&#x9;&#x9;&#x9;&#x9;&#x9;qsD6U3JQ5NTAvvdCifuqHCaURZyNWLEGxcH70krNhP3h9S/retfTHXQH3R3YAUr9KljIDhsJTrDy&#xA;&#x9;&#x9;&#x9;&#x9;&#x9;&#x9;&#x9;&#x9;Ikta1vQDiwofiUrtXc2xpmHbJFyA2aZZ7yJc8TpcBAR0p4u4CL9GzGAOT2xHIuHwBBkY6OmGCRA7&#xA;&#x9;&#x9;&#x9;&#x9;&#x9;&#x9;&#x9;&#x9;abSXj/XxsYjPSm1W6vPyftq9kb58WhnbvrOV/5mZWVw4p2XvQaq6BtNPn0DbLWdK0x4+0m5sfNIe&#xA;&#x9;&#x9;&#x9;&#x9;&#x9;&#x9;&#x9;&#x9;XCOwq6IVrboVManDZvFbDpoPuYZMo56zzoznKnfR4/RgfX2MBxtv45vWCPG7I+G/7fAy3TYx2teH&#xA;&#x9;&#x9;&#x9;&#x9;&#x9;&#x9;&#x9;&#x9;tkR7aVc00sKbWifHx7/d3rr0PZvPXz+/ocyZ5l5r95eXtc8LzpM7jyuQf/cRzsw772rP0Bu7b7Ul&#xA;&#x9;&#x9;&#x9;&#x9;&#x9;&#x9;&#x9;&#x9;6oD96Mu2FxB0NMXIbwAAAP//VFddiBtVFL7n/k5mkt1JGJNdupudIRrBqTv5qQlZCjumJYVWqivI&#xA;&#x9;&#x9;&#x9;&#x9;&#x9;&#x9;&#x9;&#x9;tuqgYH3oim1WaiqUJQaEPEndUIT2zUJBH0pBDeyDDynbh4LCuiDaNxG0ldJQkBWKu5l6ZluozsMM&#xA;&#x9;&#x9;&#x9;&#x9;&#x9;&#x9;&#x9;&#x9;XO7c7+d893Lu2sNffSNmVukt9jMnP1FvSMyte4jougA5oLHwaA8OwvRomZ6P/LxEi2wfvY0rTPkm&#xA;&#x9;&#x9;&#x9;&#x9;&#x9;&#x9;&#x9;&#x9;fE9tVmCvMHwIAHhBGQl7Q/zdqTpMH332HG3SYh+RG+GPPIUOMFLyx4Eydp2AhQtSbEnXHv65y4FM&#xA;&#x9;&#x9;&#x9;&#x9;&#x9;&#x9;&#x9;&#x9;RC9CvbLnumTeKxa6YtbtrtyImPDU9p1veFpaD75TB3FS1LKK+9jyjZFp8r7/8p7kXro3WYj78eOp&#xA;&#x9;&#x9;&#x9;&#x9;&#x9;&#x9;&#x9;&#x9;U6l3p5r0nNFOtlNn9ixPNafH05lMR2mWUtr4Clmb8WcgW9PqeVVRDbWoWkqo7Ex2TvWz6Z7GMj2F&#xA;&#x9;&#x9;&#x9;&#x9;&#x9;&#x9;&#x9;&#x9;KuaHBTBvu8oMfncDc2vYnXVXzBtF8qgWPOeAU+KZdFrtyz+bz+dyUC5FtRH3H/zySXjvWngKjsHr&#xA;&#x9;&#x9;&#x9;&#x9;&#x9;&#x9;&#x9;&#x9;l8E4vdTcXHh1Ye3TK+FfG+d/O/HFl+zzrfCls4cKYvP5w4f++OqDK9XKM9sferU34Y3IY4Vhv4rK&#xA;&#x9;&#x9;&#x9;&#x9;&#x9;&#x9;&#x9;&#x9;DPKO/+JJOCPaBmsnIKbrHcYtxni8pvNJfpyf5B9xwetnGbB4Ij7HWCI+nphJvJU4neAxfkEynV0A&#xA;&#x9;&#x9;&#x9;&#x9;&#x9;&#x9;&#x9;&#x9;4o1K86NSlKFkqubt6gncR2IgKAaOUy1DruooFEBfG33trEN63aFHnfXw7voqv7a6ur0QsTqCzXl2&#xA;&#x9;&#x9;&#x9;&#x9;&#x9;&#x9;&#x9;&#x9;l9Vlf8ljQCkDO/Z0FTo4pCktZsdmq7GP8eBjnOmGbhugNMY7QuDmNYlNbKNsHDBOGC1DI9QgTNcT&#xA;&#x9;&#x9;&#x9;&#x9;&#x9;&#x9;&#x9;&#x9;fgLiNVnPi4poiEXREkJEQkQ/rnAOFzoTxJtPZWr/qQTujEzNC4rQNUeDwYAEXVMbaAMxcrVBNIYf&#xA;&#x9;&#x9;&#x9;&#x9;&#x9;&#x9;&#x9;&#x9;Ejg5UAwFMbyhCHE3fOGH5Ztw7Oa37L2dnQ168Wpoic2dbSZGVVTWwIvFFCoT5IhfYJx3gFqAyRSm&#xA;&#x9;&#x9;&#x9;&#x9;&#x9;&#x9;&#x9;&#x9;sAUTQskareehAg1YhBYIkErOQV+i0FWIgvKEHZILHufEcRDbYX/vLCBwuEHviM1/bmFuEU2kEM3E&#xA;&#x9;&#x9;&#x9;&#x9;&#x9;&#x9;&#x9;&#x9;q8yyf5gblrFkvT19jrQtyScnxIQQHaksKVVypTkGY2OO74BdU/W8rMiGXJQtKaTt2HOyb0/2mnhk&#xA;&#x9;&#x9;&#x9;&#x9;&#x9;&#x9;&#x9;&#x9;cTnRU0yiU0MscDD8v1nB4+Cq/fuj7EqZy6EzTimN0X3K+hcAAP//YmOGpl5mcOo1Y3GPebzgZiMw&#xA;&#x9;&#x9;&#x9;&#x9;&#x9;&#x9;&#x9;&#x9;sBg7OjZZWttlZSmpaJfG7ezdVDHfysWZ6aiP999LrBcNdHUbo6tuMxobR8goyv5dqGNg2QfKla3/&#xA;&#x9;&#x9;&#x9;&#x9;&#x9;&#x9;&#x9;&#x9;ytlkgN02QQZzhuUO+QpCBsJMSgrAkkZfW0FfwUTf3Erb0MTa3FvbxSSAMZoryCTILJkhi7OIoYCx&#xA;&#x9;&#x9;&#x9;&#x9;&#x9;&#x9;&#x9;&#x9;gKmes4ar0qDATExGRmKSvwKjgpAm2yQGJiMWfiCpKSxar69sr8ykzC+jL2Mv4y/DIqOpbC7DosNc&#xA;&#x9;&#x9;&#x9;&#x9;&#x9;&#x9;&#x9;&#x9;a7rDkqdWZ7uFwLe3QCQESh9AfzPYAyuzLVaanppMsZFvwRxTIzcjEAcUTn+NgCVMrDYwX4AKVDVl&#xA;&#x9;&#x9;&#x9;&#x9;&#x9;&#x9;&#x9;&#x9;JTZw6S4GDAh2NjYIw9wYyFRWUjM1MTMHMhQYBEF1gYoxkCHAwLIgOOzMjv5nwQGhZ3b2Pq9gYkmN&#xA;&#x9;&#x9;&#x9;&#x9;&#x9;&#x9;&#x9;&#x9;N8xQkla2K7eduZqFSVRP+t+3f5crC3MZ3Q4xcjLq/zvDWFjEKLXyzO3mgrx/d2edu9f0QViNO9NH&#xA;&#x9;&#x9;&#x9;&#x9;&#x9;&#x9;&#x9;&#x9;nGcNP+/MPiElUWCmUmLkOcaY2dW28N/9f5//Hfn7iQGaapTBpZ08wzyHHGD2lxeWFJPXFLAQ8BaI&#xA;&#x9;&#x9;&#x9;&#x9;&#x9;&#x9;&#x9;&#x9;EshkzufJFMiVq2eu56kSKJQX4BASZmcXFm4UERUREREVFGjkl+dnqC2QYZSRl+HnhyQpUSc1ETMR&#xA;&#x9;&#x9;&#x9;&#x9;&#x9;&#x9;&#x9;&#x9;N5FwkTIRVhFQkhLZqiAvyjHZQNBBkElQUIR9kigzvwiDvjE0YQmh5UNLkCAoGzIikhgwOFFTlDAw&#xA;&#x9;&#x9;&#x9;&#x9;&#x9;&#x9;&#x9;&#x9;sSElOCZ2FlcFRbW8gAetl5ImWDt53nv5r+Lf084TwLw1rWOVvYXDy70s8aaeUvISfw+p6BpN//2N&#xA;&#x9;&#x9;&#x9;&#x9;&#x9;&#x9;&#x9;&#x9;KfgvsDhU1tMsCd/17zkox5r8f8pawvqGwYBhm4OcrpCCpqmoqYqbqJtKJH+wVr5wsmaCVqVAmXKp&#xA;&#x9;&#x9;&#x9;&#x9;&#x9;&#x9;&#x9;&#x9;Oh8bsBntwMkrYC7rACQkd/x/4ODByWPOpAAk2Ji4tUWUWMQZGKQdpAOkE6RZpKXlJ4mz+LPEszCx&#xA;&#x9;&#x9;&#x9;&#x9;&#x9;&#x9;&#x9;&#x9;sHBMYhDmrtVWqhXRFmFmkBKQUpBilpIyUjByMAowKjBiYdYHZy8hYCi8BVab9m+BHDAhCEyAoJaV&#xA;&#x9;&#x9;&#x9;&#x9;&#x9;&#x9;&#x9;&#x9;YAR3uFIld5lSJ3eb0nTuGUocsZGGBtpAEMuqpKJubizGAgwiU3BwAZGpCQMokNiV1YD9fVD6A4YX&#xA;&#x9;&#x9;&#x9;&#x9;&#x9;&#x9;&#x9;&#x9;JI8C0yCT58R/v+oM+BIYxZuuPg70c9wcOHcNYyaj3Jz/Mbp87v9+Ttx20y/F4YpH3+SEsJjv0rb2&#xA;&#x9;&#x9;&#x9;&#x9;&#x9;&#x9;&#x9;&#x9;j6MTVza7xogJKQorr6q7yijtqHPVMW5BtVOKJL+2sPqs0qRDrl4hAAAAAP//XFdNTBNpGP7m+zrT&#xA;&#x9;&#x9;&#x9;&#x9;&#x9;&#x9;&#x9;&#x9;DlM6Q6c/Qgfc2mnLtLrT2tLSCnG2CpFEJWCxgiG7IS4IyapoQEnQqgSMiUaNCxhduWCW7MFovPgD&#xA;&#x9;&#x9;&#x9;&#x9;&#x9;&#x9;&#x9;&#x9;JsZwMP5EDh6M8WJi9GDQkxezhX1n2s2aPczhu73zPO/z8+rOfht2axF2y4z6tWbw9VLKCOaIuZX+&#xA;&#x9;&#x9;&#x9;&#x9;&#x9;&#x9;&#x9;&#x9;xWyCcKQtKRacJnOBUIgIJEASpJnkyDAxEwtrgeRhLa3sQTbPEsp0iYE2oP4vcgYhc4w+U3JHyguZ&#xA;&#x9;&#x9;&#x9;&#x9;&#x9;&#x9;&#x9;&#x9;DiWBniksr7x8QkULywHTZ7r222u69i/Y9+DqO1OX6Riyojp0TutEqqiud/rVtCOutji3qtlQb2g4&#xA;&#x9;&#x9;&#x9;&#x9;&#x9;&#x9;&#x9;&#x9;xEnIWl5XU1dTMxGNO6LReCIVz0Rh6dKK4oo+SDJjLs1emXShKyEpJm2RiCRtEFsVSlH80xuEODsp&#xA;&#x9;&#x9;&#x9;&#x9;&#x9;&#x9;&#x9;&#x9;uoA2tURa0TrV8LLwocIY+n34jO3HMA3jnrE1NNCLi9GIYaD/uYPZeJT8ISHDthfZ1L3EB6/YRoM+&#xA;&#x9;&#x9;&#x9;&#x9;&#x9;&#x9;&#x9;&#x9;4iMDV7/sbMv29O192C57uiOxE+3jfw4dGaQ2P2csoJXu+o43W8v8qbe/Li2xzK15vIPxeb2D2W3b&#xA;&#x9;&#x9;&#x9;&#x9;&#x9;&#x9;&#x9;&#x9;21J/CJuc7rXXjo/fTadijKS4Ig12e3nSs8AHTp/3NHoKZYBXPeA1B/1KRD50TOtYw4f5gNhoS0tN&#xA;&#x9;&#x9;&#x9;&#x9;&#x9;&#x9;&#x9;&#x9;uNm5hwyQI9SoZYQ/JA47R9fyNDRR7B5DC/4ytqbaVj5h5axyypoJcHVcE7ebG+JoTvbLae6+bEVV&#xA;&#x9;&#x9;&#x9;&#x9;&#x9;&#x9;&#x9;&#x9;kxUC551iSlh9l3bFBH70iIJ21P1vMdLhCOplghj/TxmY6IAQl46Zaa63o/PteOe1xsrbVN/Cye47&#xA;&#x9;&#x9;&#x9;&#x9;&#x9;&#x9;&#x9;&#x9;v83eXHlWX7//8K47Oy5rI9n9N/Dfsyuv+w+MqMEk4yi8+mnX08LZ3NLw0VPt8cKpdYFe2Nnc6kfQ&#xA;&#x9;&#x9;&#x9;&#x9;&#x9;&#x9;&#x9;&#x9;6VEURJ2anSWYrSQONuNp8/R48sRi03Vu54SkILinrYIsV08jlyzzuhnYwQd4XmlVflbyCqkaY+Zr&#xA;&#x9;&#x9;&#x9;&#x9;&#x9;&#x9;&#x9;&#x9;9fFByuGYaqhY/0CnINKiLA3HLyqzSG4pJYBgIx+wNDDbuEnr6cpR6PeemxmFczQoyj7t8ddLE5tP&#xA;&#x9;&#x9;&#x9;&#x9;&#x9;&#x9;&#x9;&#x9;rI9mRa4297hyYyI+03+dEvr2DSX8z+wRp6t65d6n81dkpzte/iKYAhY7Vt/RoRKL41pXS1XLugFT&#xA;&#x9;&#x9;&#x9;&#x9;&#x9;&#x9;&#x9;&#x9;3nKoYtTD2B0+n5dg6NkTWHRgLMopMQPHCW7Cu/EQprFOmAD3ElyEB3EeLr2LmMEYGK5icfUYOy+L&#xA;&#x9;&#x9;&#x9;&#x9;&#x9;&#x9;&#x9;&#x9;yD3FC/iHye+o/AcAAP//XFdfSBNxHL+fd7fbzd3ufr/b3O1K7dyazZWa85o3ypaloARG2sxiJKWl&#xA;&#x9;&#x9;&#x9;&#x9;&#x9;&#x9;&#x9;&#x9;JbmgmZSx1LSn/kFtUhCIL1GBQYSVZgqF/XmqXkKilyQKil4iCnT2u9OKgt/D7/XL5z+OS8PFjiwh&#xA;&#x9;&#x9;&#x9;&#x9;&#x9;&#x9;&#x9;&#x9;aqjTJqw3r7ct9gVcDZcYjhYJ7RTJRYL/UQFdkB4cX5a4uvva/ebIjo+9jclNsUube6pbh0Oq1tZZ&#xA;&#x9;&#x9;&#x9;&#x9;&#x9;&#x9;&#x9;&#x9;P1Jjsv/8HG/Y8PTREMhtP3TS6wWz86fcSnND7bvW4z31JXrC7Vz4QPVS3QSLMd0XLqGQYLOjOuzK&#xA;&#x9;&#x9;&#x9;&#x9;&#x9;&#x9;&#x9;&#x9;CWsMMexg2AmcTotpUBAUJTtlyapi69mjLKkoIsc6ZbJf1MHNZPmgKPrkPs5AVQf1C9Q0Q9xL2OLv&#xA;&#x9;&#x9;&#x9;&#x9;&#x9;&#x9;&#x9;&#x9;EbxQon+JCfI8qqB7r65V5Z/ox4+cpKl4z7m3+cD0Mf0DnAY5E8+hOPfMRN+6dvhTbaavZFt5eVPG&#xA;&#x9;&#x9;&#x9;&#x9;&#x9;&#x9;&#x9;&#x9;9exV0qGu2xfmy2de4eI3+vBmTm8ku0w6OxRZ9wLl8LyAWYuHC/nZlENIRF840omLpDnTOiDaOMh1&#xA;&#x9;&#x9;&#x9;&#x9;&#x9;&#x9;&#x9;&#x9;yCDMbmNjLMmyHMEL/Ap+hVTMF0vnJUbiJZmXAe/SYIWXU7mtXJSLczTnkl0hDnfXlMkBHCDTbBuE&#xA;&#x9;&#x9;&#x9;&#x9;&#x9;&#x9;&#x9;&#x9;PKe3QE3bqLcb3cwMVAM6xHpSFUWjwpnJSV21a41ta9zPKAxOaNEdDCwhTD6xZDd5T5zIZUGdJ31n&#xA;&#x9;&#x9;&#x9;&#x9;&#x9;&#x9;&#x9;&#x9;ZmIm4UmYfV/HN+730S0W1N3rTc5p5HRy5eM3VlzUCUe6kZrC2LmJAJEKt/syAhkBWOOvKWkItJta&#xA;&#x9;&#x9;&#x9;&#x9;&#x9;&#x9;&#x9;&#x9;CnGzY+IwIcWUbr+NAANuT0BEeahUy6vwIhVVogjqRDQqVUtDAgIEElAHSqBT6AIyIaQmGMAwa/os&#xA;&#x9;&#x9;&#x9;&#x9;&#x9;&#x9;&#x9;&#x9;+NwM11hpfjJXIPjiy1lmszVJLSdw0BThDm6ste9Rw8r/8lm/Vr9XZzLWjoIVjWP3t3j/Z3aQ+Y/Z&#xA;&#x9;&#x9;&#x9;&#x9;&#x9;&#x9;&#x9;&#x9;1NT7ivTr9LfISLXfUjZRv6ffX6DyzpYrXcP39uyo+9TflCpzhsJnKvcOhYIb2o/V3dhORedy07Pp&#xA;&#x9;&#x9;&#x9;&#x9;&#x9;&#x9;&#x9;&#x9;n3LWmKtwbUFBR+XeLZun714E8OCB7tXu4mfKysbampetnT1VKmZEmYGfnXARqdGgWCVGRFK6tzAT&#xA;&#x9;&#x9;&#x9;&#x9;&#x9;&#x9;&#x9;&#x9;3sVyQZfDZ/c52mytjuO2LkdMirlY2mweABReJxTPc3Z7liiIgjAAkR1CREEEHmC9AFlDFV6owkoY&#xA;&#x9;&#x9;&#x9;&#x9;&#x9;&#x9;&#x9;&#x9;gXFIQ3mZHIL3Zetlp4AIGup97s+2/QUAAP//Avdtv7UfgDbgOIAZH1jpSYBrPWCggVrH4ApMGFGM&#xA;&#x9;&#x9;&#x9;&#x9;&#x9;&#x9;&#x9;&#x9;w4t2lumcHCv2TObhDc7x2R5+cA+wOG/K3p08aTFznESQ/F9tphpTf/WQ0BCrP/uAxfhZ74DJoHxu&#xA;&#x9;&#x9;&#x9;&#x9;&#x9;&#x9;&#x9;&#x9;BSRiWG+Dx3MCHEwY5gL7eW1MwEDnAPdxTNlc2cLYSoF9HFDDgp/TgbOerZ6ThY15HhOoBcfExM4P&#xA;&#x9;&#x9;&#x9;&#x9;&#x9;&#x9;&#x9;&#x9;6umAMjYwfcfCoxnYCNV/a8gIrHaFQeMWMbpXdAv+/dvDyMR6+/Dhf02/F7PEgto69sC2DjMwvLmB&#xA;&#x9;&#x9;&#x9;&#x9;&#x9;&#x9;&#x9;&#x9;LUcPPmZJZlUONW4WeF+2Dbkv2wHvy4I6sm3AjqwCgwq3NZcJtwOwjizgKoB1ZEEljwGPgDmwR6sP&#xA;&#x9;&#x9;&#x9;&#x9;&#x9;&#x9;&#x9;&#x9;7NMm8BbwskD6taasrqxhrKWwfu1OUG5hZuXiZ2cAdWwxe7baKF1bQj1bFqsn/2YvCtrHmLHvBVP/&#xA;&#x9;&#x9;&#x9;&#x9;&#x9;&#x9;&#x9;&#x9;97/NjK+b/81gE/kjwWT49wPQt6CwjgOPulg7qAMzHhMzE4slM0qtwcLKYsXP6sBaz1TPysLEDIwg&#xA;&#x9;&#x9;&#x9;&#x9;&#x9;&#x9;&#x9;&#x9;fXvkgAXmHfBAUBywjGfMABXkQPPA6ZY9AJjj9RguOkxi0GDSE9JTU1HQNVcy1zDVMtV1VXLVcNWN&#xA;&#x9;&#x9;&#x9;&#x9;&#x9;&#x9;&#x9;&#x9;YAtX4hPQVNFk0hQQbgP2MMTEzcR7xNeIvxFnZRO3EW8Tnya+TPyW+E9xdnFxRgVE4paTk1FWVlWS&#xA;&#x9;&#x9;&#x9;&#x9;&#x9;&#x9;&#x9;&#x9;V5KXb1NQFFFQUGRRUGTcZRBvUGDApG+p6KSmYKrgqhCmUKrAqqBvoG+lsFOfZ6qOgPRUNQFFfmBf&#xA;&#x9;&#x9;&#x9;&#x9;&#x9;&#x9;&#x9;&#x9;BpjGQYmcqGTOKAGuHgpBaehArCFmimfDzADskAIDTLIHcHKCsgG/T7b/hnAmTraleybzCqSE2kyp&#xA;&#x9;&#x9;&#x9;&#x9;&#x9;&#x9;&#x9;&#x9;BuYJpj2ymZuTC3vFWy6lTZ7CnKbopQbOGVHqPkER1pIOkn9NmWrs/DWjnW0D/+xjia3xDEoITQid&#xA;&#x9;&#x9;&#x9;&#x9;&#x9;&#x9;&#x9;&#x9;BCsbgGEsydCPUjYEAcsGTZFMvio+UJnASlGZAAAAAP//ApUJ/FQpE9ixlwlA/+MoE4B+BRUJTAyR&#xA;&#x9;&#x9;&#x9;&#x9;&#x9;&#x9;&#x9;&#x9;wLYrqOYXBNYflg4anOzMAlFiIfJZYinyoLYPhxSbKD+TxHR+AcXpbGKioFarHKg5A+rsfwH1u+yB&#xA;&#x9;&#x9;&#x9;&#x9;&#x9;&#x9;&#x9;&#x9;jU8DROMTXp4zIsUgpEBnaYoJCX8y4/j96LDgj/0Hn/w7Z2bZVpU4y8LMqq06YQ7TpWn/3qRllT8+&#xA;&#x9;&#x9;&#x9;&#x9;&#x9;&#x9;&#x9;&#x9;MY1RICut6s7fnoBLpT0TYgP9rxR1TYlhYPp/818Ky3KgW0EttHYHL35mBmF5ZgFhZWFrflcmF6Ui&#xA;&#x9;&#x9;&#x9;&#x9;&#x9;&#x9;&#x9;&#x9;xmqOAt4C4WqZEiU+Pj4BKSkJaU4uXl4urjZuHhFuIAY5X8WygoeRx8mNO5y7nJsZ0tIGlSECnALm&#xA;&#x9;&#x9;&#x9;&#x9;&#x9;&#x9;&#x9;&#x9;3OLA5jYPvxywvc0tzQBKw/bgXgl03A4+DskObJ+BYgal2Y2IB3bkNjdoXGd5emjYk8ao6XY5exgT&#xA;&#x9;&#x9;&#x9;&#x9;&#x9;&#x9;&#x9;&#x9;90jHbsldvPoouM09ybEsJH2pmaUF059l/+6kZVZqqv/TYv1ZCmx23wI3uduVlVICQs5BUiQzaEJc&#xA;&#x9;&#x9;&#x9;&#x9;&#x9;&#x9;&#x9;&#x9;iCHPQUqS14zbjTuUm4WHHdg/5OYGJkNOLhFOTi4hkF80gX4REhIpEGEUtuRyUuM05XTlDOMs5WTl&#xA;&#x9;&#x9;&#x9;&#x9;&#x9;&#x9;&#x9;&#x9;FBYRtuLcKQxM3FP5+bn5OUEFIbi1glIQwhMfnw1SUwWY6GB5j3kfl4arYdzO0C37/u9Ta90Zaqij&#xA;&#x9;&#x9;&#x9;&#x9;&#x9;&#x9;&#x9;&#x9;xTydizPU5s9zltilsR6s7EAXC/5/ysIN7EdaMnQ4yHKKshpJiYoamRo7G8eLBhglGFcLlOpyMykA&#xA;&#x9;&#x9;&#x9;&#x9;&#x9;&#x9;&#x9;&#x9;y255UJdBF8jIF2fkMxHXZpFlUFTUmCEroAAaYeOewSDG18xgImCiYMJsot0sbiLOrACLMgUFa35r&#xA;&#x9;&#x9;&#x9;&#x9;&#x9;&#x9;&#x9;&#x9;eWt763pr6KCANmRQIBZpVAA0KBAL6v2DuxWgRog4OG6Quv9m0GYIvJ+BPgjAOLX2qJMWl6iziX6l&#xA;&#x9;&#x9;&#x9;&#x9;&#x9;&#x9;&#x9;&#x9;a++CIF/1XIvSAhdnh2OVKcftNbgEHI20i+1q5/j4GWYblZR6urqfkrZTOSlkKCGumJFqainEKcav&#xA;&#x9;&#x9;&#x9;&#x9;&#x9;&#x9;&#x9;&#x9;WBvl12Fp5mykeoBXR1wYAAAA//9smd9LFFEUx++ce2f23tmZ3W1n13VxVjfLzB8vNWRqxm6WxSol&#xA;&#x9;&#x9;&#x9;&#x9;&#x9;&#x9;&#x9;&#x9;QWmii5KGqBUTheQP3CjRSorChyQoyh7El4ieCgWNIPoHAl97DXrxLWq1c2eNCIL9xc6wO98795zz&#xA;&#x9;&#x9;&#x9;&#x9;&#x9;&#x9;&#x9;&#x9;+Z5jD3UfPG4ZUSMx3nN6vq5BjpZubX+jU+pzUkoepnuMsB2uDTdZZ6wu67LlKwXGEiXFsQRjMzE7&#xA;&#x9;&#x9;&#x9;&#x9;&#x9;&#x9;&#x9;&#x9;EovZZQ01drc9gea6OVaWLGtsJ+3JPuKSXFIlxDST8RiJhCLJCI3I7hOUFi/YJUHTFE92FXnslnK+&#xA;&#x9;&#x9;&#x9;&#x9;&#x9;&#x9;&#x9;&#x9;yz6SrDmOg2vneLVHtqh3zHeoqckXKpgR5NT/deYkuloOpVPlW5M39VDrQNW1iL6nPnfgPmajuVx5&#xA;&#x9;&#x9;&#x9;&#x9;&#x9;&#x9;&#x9;&#x9;rm21jWUX8vnKS6WZUzZfDITH7iRT++HCgnJsa01ywTjmoA3c2XGylO4P8jJezTM0w6d8OZ6zRmOi&#xA;&#x9;&#x9;&#x9;&#x9;&#x9;&#x9;&#x9;&#x9;jmRgDGhxcRHFAu6ZsDiasHgwEJgxjYhpGl3miAlxw5T+SxbYE3AersKE58N0gEISNpsNmXkNIfeO&#xA;&#x9;&#x9;&#x9;&#x9;&#x9;&#x9;&#x9;&#x9;gXtHEDMI0T+OzJGR7nitB49iZ9dlvyQgOxAqJmB859KaYUD848xwBZy/C2OxDQSfxMj7wUeLgi+t&#xA;&#x9;&#x9;&#x9;&#x9;&#x9;&#x9;&#x9;&#x9;zotQ51Dr2tl1lv35CsvL47nydBV8yU9XDiQ6OjrqaTPqf4vhuIn6NTKS3l2l1KgZjapM1WbxmMqm&#xA;&#x9;&#x9;&#x9;&#x9;&#x9;&#x9;&#x9;&#x9;KYUkNEIrdEO/ohI5NYp6wxoe5MoITMI9eAoSo95tf03reIQSFWhQwgSGghSF1kMGBiZqCTfIFcg0&#xA;&#x9;&#x9;&#x9;&#x9;&#x9;&#x9;&#x9;&#x9;UgN1LIVt5htX1tYfwF55iUjQs3QM//cDIdoyXpNBPqWHK5Vavk9vhCP0EDvMj4rjegfrFOf0QWUY&#xA;&#x9;&#x9;&#x9;&#x9;&#x9;&#x9;&#x9;&#x9;Buggu6iPwzh39VF/VKUgojQskrxSuNwV3K+jzcIfZNw3jWBZgR/xJnLhNzSo0BQtWI0oBMCp0Knm&#xA;&#x9;&#x9;&#x9;&#x9;&#x9;&#x9;&#x9;&#x9;ibP9UlwgGMgFIKW2q73qlHpdQ4xz8XRvzFUI81gDSWVT2Z2Gn+4iRlKXupxmZasvWwA5fJHkVpBb&#xA;&#x9;&#x9;&#x9;&#x9;&#x9;&#x9;&#x9;&#x9;UIwPbTn/44275bw+uZ5QPj+7otyQ4mnvr5e4AC9on3zKmd0KEivgKvjJx/TtalKhAfKI0AXXVbwr&#xA;&#x9;&#x9;&#x9;&#x9;&#x9;&#x9;&#x9;&#x9;+LXiZ5qGmikDH2ZfFOdXOFN1/a6fYclB0QAzCkdA4IDyBNeUFqXF14LVp1/5DQAA//9sWl1IFFEU&#xA;&#x9;&#x9;&#x9;&#x9;&#x9;&#x9;&#x9;&#x9;PmfmzszOjtus0Z+YTQayYUmaPqwRrAu1Klluspur5k/mX1Zqv5gQCRE+FCH0IPQg4UMPUWCzQmsZ&#xA;&#x9;&#x9;&#x9;&#x9;&#x9;&#x9;&#x9;&#x9;KGi/WJFRRARBkBoRBfUgubudO7uYD81w7nf/Zrjn3O9y7uWeZqVB68EzikqHLOT3HaVSSGogRSV+&#xA;&#x9;&#x9;&#x9;&#x9;&#x9;&#x9;&#x9;&#x9;OVOk+bVOrUtjmigpKtNQ1xL3MZgwQC2t3G1c+7zcPuumro9YysFGTP1Pyk3AtU8YAhdiT2a+4I25&#xA;&#x9;&#x9;&#x9;&#x9;&#x9;&#x9;&#x9;&#x9;6BQWvpmN1c7SstkcO4C3otPRt3g7FuArM5887g/SX6EzcwFNHe1hiZhYIofkblkkgpL3sQiqwFpw&#xA;&#x9;&#x9;&#x9;&#x9;&#x9;&#x9;&#x9;&#x9;Ek09UCiUCtVQI1wAO4gKn89UoqSiqLpqkVVIEtXBiSopgmgTdeTO1tJsiasrC/+xtXacb8W5I0Jr&#xA;&#x9;&#x9;&#x9;&#x9;&#x9;&#x9;&#x9;&#x9;/lB4ibufTQwKa6ZjTfiRrV+cED1WeIS0/1vFANtUr+/8DemJQLI7Y2MdSwFlvliV4pc30L5HJbHi&#xA;&#x9;&#x9;&#x9;&#x9;&#x9;&#x9;&#x9;&#x9;A2kZabGKZfFnDtqxL39cNk7ZV+R9h+CqOBQfFubjU5S/TnkfnUqKxTpQpMuwh50GH5sBn1wGl6R+&#xA;&#x9;&#x9;&#x9;&#x9;&#x9;&#x9;&#x9;&#x9;8EndUMC+wzB7AS62CG62BSoJg2wSQvS/XWwBVktOcAvbYQczwcNReQpuXsc+QBVbjL8X263vUkUX&#xA;&#x9;&#x9;&#x9;&#x9;&#x9;&#x9;&#x9;&#x9;9FJ9D7sPpnwFJthY/AHl82l8Br2NcBMew2dMwXM4KeQJbcI78SKzs7vsj3RN1uSz8i+lRXlt67TN&#xA;&#x9;&#x9;&#x9;&#x9;&#x9;&#x9;&#x9;&#x9;qS51UH1uP2//qRVrj1KMlFFHviPsiK7o1UGvtKzoorNLwjoCOMEL1aT7PSWd7IJeHQLYiR3k0w08&#xA;&#x9;&#x9;&#x9;&#x9;&#x9;&#x9;&#x9;&#x9;gQELjyfxGB410wzwpmI7bCTpIhEhl1I/yTjJJxIGOraP4Nd5t/EQT4EbT0IQijA9nJXlK4oQZmZa&#xA;&#x9;&#x9;&#x9;&#x9;&#x9;&#x9;&#x9;&#x9;aGZk+CKYZmZGgxFcZ0bjRgT9JkaDo/FxLDdVB7WW87JXxb1QgGX0G6AUQcWyMNWDdxUeoaID27AV&#xA;&#x9;&#x9;&#x9;&#x9;&#x9;&#x9;&#x9;&#x9;ttIAW7HFGmgLNkE2YTPhPsKm8ECJ0evNxsPQTyJgI2mURw2HCHMJG5Ia1hPmEHZhlVWuwxAR3yBq&#xA;&#x9;&#x9;&#x9;&#x9;&#x9;&#x9;&#x9;&#x9;JvodTParSWI1Bswcw+N1Ur9yknoSESuTvf8CAAD//3RaW28TRxSe2XXNmtjexW4cnOAcu6EQvLnJ&#xA;&#x9;&#x9;&#x9;&#x9;&#x9;&#x9;&#x9;&#x9;SIYUUDaJHSLtQyySVDE8EKR9yBuW7D5im4SFQC7CbptCAKX/oBMTFIuLgaeqKRJpCQ/crAhIUy4R&#xA;&#x9;&#x9;&#x9;&#x9;&#x9;&#x9;&#x9;&#x9;qI+04J41qJcHVvr0ffPN2TNzVjM7D7tffojqx6hWEC9jE1ByDiy/76K/savMHm9XCivpxUqctJu6&#xA;&#x9;&#x9;&#x9;&#x9;&#x9;&#x9;&#x9;&#x9;cIEC3YvcjdxFK8scxlPRQvppKCcZz6kzJ5bgKu0gftqOLrx3aw03T505p0E0ZzKI5HiDbEoFuu/Q&#xA;&#x9;&#x9;&#x9;&#x9;&#x9;&#x9;&#x9;&#x9;eltuSzmXkaHiQ9717zNYlCpM8Rd90/8nLcEbUoLfV93w22o1GGfqyI9V7uDjF1vg5YsG8N5T7nE9&#xA;&#x9;&#x9;&#x9;&#x9;&#x9;&#x9;&#x9;&#x9;tw7e4n5ecMDhBTqz8MMC91NWgJtzm+H89A44Nx2As4jpTADOTLXAd1Pd8C1iKtsI36D3daYJMtku&#xA;&#x9;&#x9;&#x9;&#x9;&#x9;&#x9;&#x9;&#x9;gGxzlstmvNCTOZjhZjJUWV5e5qSit8iRolRsKSrFSDFWNCtXLRVBYx6RK1YpKF2mSt4iBcm8NO+d&#xA;&#x9;&#x9;&#x9;&#x9;&#x9;&#x9;&#x9;&#x9;5wcvxS5xT1bq4OmKF8hay9rgGh+5S5WlyFJsif/jaCW8ngvAK8TMHH1wvwHuP/DBw0dN8KjgMIq7&#xA;&#x9;&#x9;&#x9;&#x9;&#x9;&#x9;&#x9;&#x9;eMculZOX7qyXgr8WBPgFO8RFWGxe5G8X3HADcf2ICtcKAIVUK0yOqzAxpsL4WD2cGuuEk4ix1F64&#xA;&#x9;&#x9;&#x9;&#x9;&#x9;&#x9;&#x9;&#x9;oFfDqN4EJ3Q/HNc1OKZHYASh6Lv3BHW88fthBwynVTiaUkFJt4eC6VQ9HMFGKhmGWJIqyfbO4DZt&#xA;&#x9;&#x9;&#x9;&#x9;&#x9;&#x9;&#x9;&#x9;l6ZqUW1QS2hmYytJog9clX5YZ/aBe6MfTLwPnA4/NDSKftlev03cstW++XPxszq71yfWgr1mk8e2&#xA;&#x9;&#x9;&#x9;&#x9;&#x9;&#x9;&#x9;&#x9;0V1tq3RV2RzOT22itMFqtdmtFjyuzesEK2/6xIrve6skpkVOMafNnMKneU4kir+N9JAUMYmkmbSR&#xA;&#x9;&#x9;&#x9;&#x9;&#x9;&#x9;&#x9;&#x9;wyivk9ukRISaXQKIXwjAtwpAdgoQ2U6ZQyVqXwdzUuTeDrZdVvMC2ccCssoskQMDs5RORtFl3Ciu&#xA;&#x9;&#x9;&#x9;&#x9;&#x9;&#x9;&#x9;&#x9;xD5mGs1zSI7O/QcGcO8b3Xr5D01UeZrWJyZq/lHRqOxhmto7wGKeKAsY4rQnSoxPfPFEPB6XP3LN&#xA;&#x9;&#x9;&#x9;&#x9;&#x9;&#x9;&#x9;&#x9;uozRtX0djA+zZ+GhQ+xZXQgFe27o53UhmTLNGx4KxVkyPMSSaHw0l/xvlyHKoyIS5SmQeEL+6v/B&#xA;&#x9;&#x9;&#x9;&#x9;&#x9;&#x9;&#x9;&#x9;Cfm/8/obAAD//8JAccUQjGxhMUwmDllnMdAoIJDQBgAAAP//AwAJGtxbDWVuZHN0cmVhbQ1lbmRv&#xA;&#x9;&#x9;&#x9;&#x9;&#x9;&#x9;&#x9;&#x9;YmoNMjkgMCBvYmoNPDwvRGVjb2RlUGFybXNbIG51bGxdL0ZpbHRlclsvRmxhdGVEZWNvZGVdL0xl&#xA;&#x9;&#x9;&#x9;&#x9;&#x9;&#x9;&#x9;&#x9;bmd0aCAzMT4+c3RyZWFtCnjaYmBgYGiQ+v/g99edDPXv9x8AAAAA//8DADLsCBANZW5kc3RyZWFt&#xA;&#x9;&#x9;&#x9;&#x9;&#x9;&#x9;&#x9;&#x9;DWVuZG9iag0yOCAwIG9iag08PC9EZWNvZGVQYXJtc1sgbnVsbF0vRmlsdGVyWy9GbGF0ZURlY29k&#xA;&#x9;&#x9;&#x9;&#x9;&#x9;&#x9;&#x9;&#x9;ZV0vTGVuZ3RoIDExNj4+c3RyZWFtCnjapM1FrkNRAALQU3d3d9cvlf2vrDcddfBmJYEAIYEvEYts&#xA;&#x9;&#x9;&#x9;&#x9;&#x9;&#x9;&#x9;&#x9;4xJBk4EpaRlZOXkFRSVllY9lVU1dQzP4lraOrp5+SIPAoVHQsYnpez2L+JpbWFpZ29ja2TuE9ujk&#xA;&#x9;&#x9;&#x9;&#x9;&#x9;&#x9;&#x9;&#x9;7OIa/I9ff/7d3D08XwAAAP//AwA7vQY9DWVuZHN0cmVhbQ1lbmRvYmoNMjcgMCBvYmoNPDwvRGVj&#xA;&#x9;&#x9;&#x9;&#x9;&#x9;&#x9;&#x9;&#x9;b2RlUGFybXNbIG51bGxdL0ZpbHRlclsvRmxhdGVEZWNvZGVdL0xlbmd0aCAxNTYyMS9MZW5ndGgx&#xA;&#x9;&#x9;&#x9;&#x9;&#x9;&#x9;&#x9;&#x9;IDIzODAyPj5zdHJlYW0KeNqcUl1IU2EYfs45m1isMh30I+oZ0widBl1YBMoutgiyH0rXVrM23fQk&#xA;&#x9;&#x9;&#x9;&#x9;&#x9;&#x9;&#x9;&#x9;/qy1ZJlUBqlto1qYiEk/UkkaecwbZwWmIFIRDa+MSgwijCgv7Co7p3db2aSueuH7zvs83/t3vufz&#xA;&#x9;&#x9;&#x9;&#x9;&#x9;&#x9;&#x9;&#x9;uE84sQxnwUFfXu/hM62HeQBdANtV4aqsKXExowC3FVC8qaw+WbEuZT4AJKqB3dmC0+7wTzOrAFMh&#xA;&#x9;&#x9;&#x9;&#x9;&#x9;&#x9;&#x9;&#x9;5eQLRPglVSJhD+FMocbj3Zj6aYFwB+H31XXl9nxu2zvgQANhT43d66pVFnKEvxDmXW6n60nQlAGY&#xA;&#x9;&#x9;&#x9;&#x9;&#x9;&#x9;&#x9;&#x9;V1K/zwnpCWrlnDKsaFSUcm+RBMgf5RnJKzkkC9cGikM7ehHCOF7itz3GaPRbj4cYwXPEWxPacBcv&#xA;&#x9;&#x9;&#x9;&#x9;&#x9;&#x9;&#x9;&#x9;8BpfF7kOXEcfxCVxl6PsbdzDAwxiGGPEtSJI7B3cj4urQwsu4RpuYpJJ+8WNsWomNsEsVGyYOc5c&#xA;&#x9;&#x9;&#x9;&#x9;&#x9;&#x9;&#x9;&#x9;xHroYIAVx3EazTTXBFNEXAFxe4l1w4srxIYwgb+tACaUogq1GKCIp1Eum9hiOIiNcDE7hgZcwC30&#xA;&#x9;&#x9;&#x9;&#x9;&#x9;&#x9;&#x9;&#x9;4BHN1UCTBdH5j3pNrIbVwIMPlPmMucqO0x/14HyCGssBZThyq4rS6N1CngEkh/yN9C9j59luNoh+&#xA;&#x9;&#x9;&#x9;&#x9;&#x9;&#x9;&#x9;&#x9;tgpF8eWiee5o3rAyrJxb2ixaKRSrFL9HFIx1W3DKU9K81E+R6VKrtAf/ZYmLnjxLldYgJB2RLDIr&#xA;&#x9;&#x9;&#x9;&#x9;&#x9;&#x9;&#x9;&#x9;edGIlgWLPCu9+qH/3irnyemkZjcpO0hqNuMU+b2kfgfpeIPeQSe9EC/dYjsCOEdeHyYxTdqG6K4n&#xA;&#x9;&#x9;&#x9;&#x9;&#x9;&#x9;&#x9;&#x9;SD8/dZgidEafZj100GIqKd6/a8eW/M2b8nJ1G7Iy1CnJq1eolApWx4tcllFr1NoFH28UeJ/WYDPk&#xA;&#x9;&#x9;&#x9;&#x9;&#x9;&#x9;&#x9;&#x9;6nbuMxsNqRqNJVfHE23gRcbGG8Xt9cJanzESICbniGyWMbKqRL3fRo7WoNFo6CTlz8mQPBKIO+KP&#xA;&#x9;&#x9;&#x9;&#x9;&#x9;&#x9;&#x9;&#x9;inq7CD8/oBvxBYaSUGbLUTm0DrvVLHJ26jUAGkYoNkdmiiybwIsKyqbtJwAAAP//bFVNaxpBGJ6Z&#xA;&#x9;&#x9;&#x9;&#x9;&#x9;&#x9;&#x9;&#x9;WFAxsAm0SMfCLFOkYKG3EnrpoFEpe4mahFkNdKs92FvpqV+HpZfIpD+iP2FWL+op1/6P9ne07zuz&#xA;&#x9;&#x9;&#x9;&#x9;&#x9;&#x9;&#x9;&#x9;m1pwlVef53m/d9iVpxyYvEXU5glYeQpRe3mgH3T0dXjL7TH8du1Ry/bBo//5Fz8w3fo7gdCYa2F/&#xA;&#x9;&#x9;&#x9;&#x9;&#x9;&#x9;&#x9;&#x9;DPSuGqKN47j+3xp6spcY05OiZxLzZv0nnUoRSJNFkXnfTYQlZ9pS4Lc33Pa+xzZI5vQFjIxz9Ib6&#xA;&#x9;&#x9;&#x9;&#x9;&#x9;&#x9;&#x9;&#x9;JQ+PIEsY4rw3a0WmAGw60B4LMuVLop61YssSVG4L5f4FKmmh3IUn0u26ow84g8TRSEaDsRZdk+QN&#xA;&#x9;&#x9;&#x9;&#x9;&#x9;&#x9;&#x9;&#x9;58zJPmRZB5b8qgXIwWMS0ei8DTeAkXYm6WKQKboYjfUGnmVica6XjLJO0o6zx6DpDTx5lWMZskgi&#xA;&#x9;&#x9;&#x9;&#x9;&#x9;&#x9;&#x9;&#x9;EAgw0xBA2fnzjSIkdWrJEQ7P1pQ4rlxwlMzWzHOBL9R0hRRhoJS8ogrvEnBlz6Xe+0nuXQYlQGVL&#xA;&#x9;&#x9;&#x9;&#x9;&#x9;&#x9;&#x9;&#x9;GIVXA4r+ygjOrKr3VFlVVI0dMp5RpJbAbMG3QsmqRg8pzyDn0NFrmmYVxb1HCh7K97+4+NfYxViv&#xA;&#x9;&#x9;&#x9;&#x9;&#x9;&#x9;&#x9;&#x9;agTCnIVCbbzyFe9uHXeNy+7W50BqKbrirVVn+ms8N0mM5/UbxliKdqJDGVjx8Cc3wW+8Q5OWrjET&#xA;&#x9;&#x9;&#x9;&#x9;&#x9;&#x9;&#x9;&#x9;jWypiRmrJ7y6k1P4SGlfy48hTmov5acQSGmFuNLglJF+IzZGwEfChmaX2luU6NMGZIptOi18eSOW&#xA;&#x9;&#x9;&#x9;&#x9;&#x9;&#x9;&#x9;&#x9;O7AGoe5wrxp46u6qfSmqfYBq+McU5exsbzXo3tIJWvd17WfPifT1S828qLkyYxnK0D7Cwr6PvwAA&#xA;&#x9;&#x9;&#x9;&#x9;&#x9;&#x9;&#x9;&#x9;AP//PFZNbBtFFJ43s7v+2VnvbhqbOI5/JraDVKusa8dbrFjajdSghKgOBRypQRsjFC5cUiQuVSul&#xA;&#x9;&#x9;&#x9;&#x9;&#x9;&#x9;&#x9;&#x9;R4pEw88lAoTg0ksrLoQ26hGJS0UvPXCgqlKkqipSQzhEtKTxmjduw0rz5tud92be++bNvJWvibEz&#xA;&#x9;&#x9;&#x9;&#x9;&#x9;&#x9;&#x9;&#x9;gxnQkw3pyWCPSYRoePFjN3xDowqRzbl97/ZAHK8KW9hlFIBa+xdV8kz2BAHBpLtDMupNpUd00vSL&#xA;&#x9;&#x9;&#x9;&#x9;&#x9;&#x9;&#x9;&#x9;7Boob0evxc0IRHwDqoZvUHI1fhEAjqpXI74CihO0HvSwBQEZwNaD41UQdtEWDWHXbaHe7G1f6W1T&#xA;&#x9;&#x9;&#x9;&#x9;&#x9;&#x9;&#x9;&#x9;cQWLV0uC76jobeNKX4aXqYf3MyMNf2IUjkKFNkiTzpBZ2iFn6AoWul8Yp5QtKliN6CieLCeoO8Ta&#xA;&#x9;&#x9;&#x9;&#x9;&#x9;&#x9;&#x9;&#x9;qzm4RgBQPEK98OEXP0C29yFdl973UDwezFm4ThchSo7BVv+RHzdN2nHAAwpOUNkh3g6yULTr8Hh3&#xA;&#x9;&#x9;&#x9;&#x9;&#x9;&#x9;&#x9;&#x9;F7UpudT/Q1lXdzHqIrnhj7vQ1Cf51NDUyGRuBub0k3x+aH7kZI4n52JUzLG4OW30n6K2Dj5ZImb/&#xA;&#x9;&#x9;&#x9;&#x9;&#x9;&#x9;&#x9;&#x9;gHDCX+C965zTjinIVv/vTbkwgj0/peuIRuQQ+bZslvNlmonq+hb4m0sZhXMEfnwpw6VCRmho6x+R&#xA;&#x9;&#x9;&#x9;&#x9;&#x9;&#x9;&#x9;&#x9;xpoVi6Hk0lzbKFn/VCqVHWzB/wijkfEEYFFRoLY1JApD4LqNyYmXJyaK41pE05LDqZdSqXrNVdaf&#xA;&#x9;&#x9;&#x9;&#x9;&#x9;&#x9;&#x9;&#x9;hU/DvSf7EAP+JPy3mE6Xiue6y+dL4+lUSZxbWb5A/wxXw0twAT6BT+F8uHbw0+m7X23cb59qtxde&#xA;&#x9;&#x9;&#x9;&#x9;&#x9;&#x9;&#x9;&#x9;/+vyN3fear/ZRpohhbvSUn8jJvn1R+MwlMQhMKxBTPgFwbQx4EZBngzyHLND7LtL6muaxlmCzULU&#xA;&#x9;&#x9;&#x9;&#x9;&#x9;&#x9;&#x9;&#x9;tPM2VWneBNPkiQEbCYNzrZMoUI+tsrOMMW5ZtMO2+vd9XTLEUpIhJknOSpZYTloxzTBQWoahoZQz&#xA;&#x9;&#x9;&#x9;&#x9;&#x9;&#x9;&#x9;&#x9;MKfy4gnqyFuz5gROPSBer+bVHSQQng8KmbiiUXNPuO4JTGCldfA7uOEt77PyKw3la6husIcfJ4fT&#xA;&#x9;&#x9;&#x9;&#x9;&#x9;&#x9;&#x9;&#x9;p6b3f8aM+x5Z+Bz/nQoQ9U+/kX83T1Wm2SmWtEv2lPqq0Uh4WS/XzM+rs8ZMYiG7kJvLd1mgBOo7&#xA;&#x9;&#x9;&#x9;&#x9;&#x9;&#x9;&#x9;&#x9;sUW7m17OBGPdbDf3AVvR3rffS67mztKP7LXRtbG1XBmDerQpfacyi4VExLTMY1FnrGr6/wEAAP//&#xA;&#x9;&#x9;&#x9;&#x9;&#x9;&#x9;&#x9;&#x9;VJdNTBNBHMWZ6XbZ7gdbahmgB5Z2DViWdgul1C21u1JEWEKUxBoo2ZBoxBRi9EAUtQlGD+qFxHgR&#xA;&#x9;&#x9;&#x9;&#x9;&#x9;&#x9;&#x9;&#x9;D8YTJl48gAdNTLh4Mh5Q48V4Q24YEhMPRhLnv80iNM32TTPTj9+896aVWdlyrWaJ9EuCBhPJZVkW&#xA;&#x9;&#x9;&#x9;&#x9;&#x9;&#x9;&#x9;&#x9;7CMYKzbiFMyd5A84lfOcapEyFyUi8CMi8CMMsCNAsRVelBB4N0Lan8XkmBLDlPlKNPibQoOLS4pC&#xA;&#x9;&#x9;&#x9;&#x9;&#x9;&#x9;&#x9;&#x9;DBkuv500POP0pOgFOZRgP9CjDgT7qXSU7mWawuBEuEeZR3+Dlc/TG8srD6e/XOJP71z9gRitq7My&#xA;&#x9;&#x9;&#x9;&#x9;&#x9;&#x9;&#x9;&#x9;Nr910RfdLK9Pvf22tHDPGvyk5r6/Kz0eLCyOVt6fg4S/oEmtUt4n6natSUHw6xGhSY8LHXo8nxcy&#xA;&#x9;&#x9;&#x9;&#x9;&#x9;&#x9;&#x9;&#x9;4Z5Yn24Lp8LFWFE/j6b8U0JJnxNm9bn8onBdX8jczkf6ckM5PJCj+4ASjQmcSMRtJdCDZUmRsCQ1&#xA;&#x9;&#x9;&#x9;&#x9;&#x9;&#x9;&#x9;&#x9;2gFePcRM3WfWSis463oyy4C7siwwyrYlyaEFZH9BtEyivmRbLsuIvojrStF14nNTNhUTi08LwW0n&#xA;&#x9;&#x9;&#x9;&#x9;&#x9;&#x9;&#x9;&#x9;uK1pjc1GkOLUdb3GtQ6QOmbIgAd9zzAcCDghNYhqrKMzk3YDnd0Pupqhw/+hr1GH2MOaJkKYhlTB&#xA;&#x9;&#x9;&#x9;&#x9;&#x9;&#x9;&#x9;&#x9;Lo59uFndHZdL2/PmcncykU4k7tjl4Sevk3HtQmHm6wxsxpXV4oj96kaqij9qdy/PvjSHiwPq5nG7&#xA;&#x9;&#x9;&#x9;&#x9;&#x9;&#x9;&#x9;&#x9;K949N3G20qY0ry7d6p+IRMJDhU114Fh36sF09U1LA5emTTpO87BG/x3wNNuTa5xXBwFPIE9gT3Be&#xA;&#x9;&#x9;&#x9;&#x9;&#x9;&#x9;&#x9;&#x9;UwQ8gTyBPcFR3rU5nkCewDVhxcqMFJaOSn3SkHRNYsUWIC1KI9RwIlsfkEaRn/72BnOzJb/fV+/z&#xA;&#x9;&#x9;&#x9;&#x9;&#x9;&#x9;&#x9;&#x9;cSZ/hsf0bFBkXC8y1PrrsEdU/LIaYBrTzgck9gyL6CGyZQkQEMTDFDr+sw4OoOKn1QtzEZJZhTVZ&#xA;&#x9;&#x9;&#x9;&#x9;&#x9;&#x9;&#x9;&#x9;H9sB9cRit7xbDpS3axzW/Vis7hWRK5yQkXYryXB0Wkh023Utv9cbMgzaSveDe8yGhhztwA2pcMD+&#xA;&#x9;&#x9;&#x9;&#x9;&#x9;&#x9;&#x9;&#x9;AwAA//90l29IE2Ecx5/nuZveltu6uS2dXdudTp03PfS2rkPELbX8m6OmzKulEIEoREaR2ouCkF71&#xA;&#x9;&#x9;&#x9;&#x9;&#x9;&#x9;&#x9;&#x9;wkCIkgqEfJeFsbQgDaJeRC8iKoQMSvJV60W+CXRbz7M5Lch3vxf3cDyf3+/7u8/5oczKPAvp2eXF&#xA;&#x9;&#x9;&#x9;&#x9;&#x9;&#x9;&#x9;&#x9;hILezS0nTyUW4FQyCqdWqeaNc+heoo9k5hnOzBjuSQVYnuWz3IRNbh7NwDgYkalj/GydvY1pZDUm&#xA;&#x9;&#x9;&#x9;&#x9;&#x9;&#x9;&#x9;&#x9;7BlgRpk8jnO0kC9VwE25A5mnCzQ33+rO2YfMBidmZzC15hhcArOLtCmmCa5ODnJzqR+BAnJlzk6u&#xA;&#x9;&#x9;&#x9;&#x9;&#x9;&#x9;&#x9;&#x9;zJkIKS69gznrP0mxbiWlQLPywMXpQfoIuOs1e51epL8tZgLCqpl8pGnFRWk7H5IYTRAfiOL1DXdO&#xA;&#x9;&#x9;&#x9;&#x9;&#x9;&#x9;&#x9;&#x9;B04Ey9t4NhsKeqz9YPPrq6PfjpiOfh44PObzVvol38SJyFQtdSURFDV+JNYeisCl/ufBQ21yyXtf&#xA;&#x9;&#x9;&#x9;&#x9;&#x9;&#x9;&#x9;&#x9;S3mNONzZMeAqdRbkodRM8jxNe3zKg017mNbFgQAU8DIg5xjtRtUtV8tKi/tgdYPSC7uNIVeIP81f&#xA;&#x9;&#x9;&#x9;&#x9;&#x9;&#x9;&#x9;&#x9;qDY5KE8Ll5+/p5WjzMiPVcLhlSw7LJwY3jfAosf+8HNbJNJjCNLDBAjp3YQumFTNqlNFUjZUUkYp&#xA;&#x9;&#x9;&#x9;&#x9;&#x9;&#x9;&#x9;&#x9;ZjWJ1+NTMXJcf/MAloY4cYdVApLNMMVjRhTComKOUtyiEpZWQCiWIr/PouwvIchsxYQiyM0CzP2v&#xA;&#x9;&#x9;&#x9;&#x9;&#x9;&#x9;&#x9;&#x9;XkwnPyydedzUHe2KRqB9vjbkMewdqv2UArbw1GDveHuk541SX3W2rutGB0JBtWqwfvw+XFlJfm1s&#xA;&#x9;&#x9;&#x9;&#x9;&#x9;&#x9;&#x9;&#x9;OAYtL17BmotDlw3GBXNRcu277C/21z29Hh2tdFnLK+we550nfq/nEZnoW3jLTOCJzgHDQRa7xO8t&#xA;&#x9;&#x9;&#x9;&#x9;&#x9;&#x9;&#x9;&#x9;/0J/1VRqPQM1IGt6aEAlsBm2oQgawemHALqwW+IfIqpVRyHGzDiZS4iiAEK0Gb8B0BKeMJxEi0oi&#xA;&#x9;&#x9;&#x9;&#x9;&#x9;&#x9;&#x9;&#x9;mWBVKR3G+LVFSGZNxPoJsSrQE4mTH9HbjYfUOv1r3aQTZoh5j6a+0JO6NVAIyoEC++dBKV4uRtwD&#xA;&#x9;&#x9;&#x9;&#x9;&#x9;&#x9;&#x9;&#x9;99xmUZItirOFQLrbRapK0WeTBV+ZT260BYXGsiY5ZDteqBVpzrDQK/Z4e6vDcljp+wMAAP//4kji&#xA;&#x9;&#x9;&#x9;&#x9;&#x9;&#x9;&#x9;&#x9;SxJKkkxQTlAv4ysTqtZpE5JlY1qptkyfSU2MS5+FWdZdgMnUA5jEUJKXFDh5gVpevFFSCgzCjMLC&#xA;&#x9;&#x9;&#x9;&#x9;&#x9;&#x9;&#x9;&#x9;DPpcvJooijSRKj1NRQYxNQVozpwLSWgKsISmwMLDC05oCoq8IA+Am9q8vEYweSNIQtwaZaTINh2Y&#xA;&#x9;&#x9;&#x9;&#x9;&#x9;&#x9;&#x9;&#x9;/oApDljogRPhE1i2BlKCxvqFb6FtWSFxy1hQx1QuUqdTh0lTx4jZVF9T30zZVTlMOUV5phqblIIy&#xA;&#x9;&#x9;&#x9;&#x9;&#x9;&#x9;&#x9;&#x9;s5qsIEgdmIgEJllIuQhKtyqmJmbmpmpqpiYq0GYHsPZjBrdFIAlV3MxMGJx61cFJF5Ru5/y7/OTT&#xA;&#x9;&#x9;&#x9;&#x9;&#x9;&#x9;&#x9;&#x9;v4cTmiuKGUWu3mfkqqvqmfJ2aUPdwsAg1W6nZB/5wDL9gtio3F39k9Yzzj/4n+HX4ZqT1mwOM4pW&#xA;&#x9;&#x9;&#x9;&#x9;&#x9;&#x9;&#x9;&#x9;PLi2NPWwOZvNBib/7PqKNI9MTSErYae+v8Ux+RZiakqGK7LaN0wDlhKF/x+D+xigUmKLgwkHiySL&#xA;&#x9;&#x9;&#x9;&#x9;&#x9;&#x9;&#x9;&#x9;JouNqo22qZ6Pqo+2s14ES7x4rESQdAFjtSq/oKyRp4impwibLLSUNRXkxFdMcEpBuhngckIA0s2A&#xA;&#x9;&#x9;&#x9;&#x9;&#x9;&#x9;&#x9;&#x9;RJUOLCp0oN0MoSgdRSlwt0KKBaRQahqoXIAXDNBiwRLctNMHl7GwUoGJnY0FUbwKmUMKW1BQM4BL&#xA;&#x9;&#x9;&#x9;&#x9;&#x9;&#x9;&#x9;&#x9;BSF4qQAvEoBFMEt/ZFT0v3c7TWJUuGSzHO/+Foldkhgz1TsiklHnRs4O19CYUw4W+jn2E5abOejm&#xA;&#x9;&#x9;&#x9;&#x9;&#x9;&#x9;&#x9;&#x9;OPktcGNkZnY6/O9QQVENNw+wLGDkfGlhoGJiu6f5CaOcs3Pwv99LZu8x0VXfsji+QldeVEtDVBPY&#xA;&#x9;&#x9;&#x9;&#x9;&#x9;&#x9;&#x9;&#x9;740C5mVPllhwv1fVQYwxjImVLYyVg51Bl42RAeRbYJ8F1P2z+WsD7TIBq1FjYEVqzOT5HgiYHRhl&#xA;&#x9;&#x9;&#x9;&#x9;&#x9;&#x9;&#x9;&#x9;fy8GDQYzMWz4L8fuB4wrJwZ/hmsOi4C1OQs3KxcnvzSfDL89v4MYkzyLDKu8tLyMiJKIury9vKMq&#xA;&#x9;&#x9;&#x9;&#x9;&#x9;&#x9;&#x9;&#x9;kw6LDqu+tL6MipKCur69vqO7g4tHmIcsFyureqRnHmcqb6ZUhmKqepp9mmOJWLV0gXqJZYk1vxCr&#xA;&#x9;&#x9;&#x9;&#x9;&#x9;&#x9;&#x9;&#x9;IIeQexCfiIOotLkIC4tvMIeurlYgH4etoVygoS0Tvy6jLqugs5CuiJeQPTcjN3+gQiCThKYItzk/&#xA;&#x9;&#x9;&#x9;&#x9;&#x9;&#x9;&#x9;&#x9;AwAAAP//TFhtSFNRGL7n3p17t9tybu1OLRwuN62uMdHNDxC9GWFNigoVXcxvMdRs6oTCwaofswgK&#xA;&#x9;&#x9;&#x9;&#x9;&#x9;&#x9;&#x9;&#x9;/CMUYWSaFPTHaVl/Rh/Qgn5E/6o/kUREwzKoqO3We862crC793xwzt15znme5z0FTAj+LGPfWTl4&#xA;&#x9;&#x9;&#x9;&#x9;&#x9;&#x9;&#x9;&#x9;GA4WpavqOFiIuLM8WVZGrER5nNA7NDnh+0KGJxSpWlI0bcUUQWB5Ap8b7AQRTLa4yF64XSPwrGQ2&#xA;&#x9;&#x9;&#x9;&#x9;&#x9;&#x9;&#x9;&#x9;5Vg0BEWJdLRvUAQNoI2MGayhi3DoSKO6f5vnfOtC7PudA/49M992ycdaW9XE3HX1R0fnieMdPUi8&#xA;&#x9;&#x9;&#x9;&#x9;&#x9;&#x9;&#x9;&#x9;1nKvqWuh7YH6aHTsTDgQQLVLT5BrYGAkebmut/rsVGBib5idvqgmBgM1irr6HmXZbKWJ5cZ3bTeR&#xA;&#x9;&#x9;&#x9;&#x9;&#x9;&#x9;&#x9;&#x9;vrOzP9Ddra5dmVPXuvr6LbmXJENodAzVP15BdePj4aDfrz5VFZbPz4vMz96qJUhuZRjcDkohgCN9&#xA;&#x9;&#x9;&#x9;&#x9;&#x9;&#x9;&#x9;&#x9;u0j8Nz0Lmkyg6Igv/EmzLD4TCOQonSaRh98nsDqdqGUnYfeYYRidyE1qkMaMMR/kxwSWc4kKcXyi&#xA;&#x9;&#x9;&#x9;&#x9;&#x9;&#x9;&#x9;&#x9;QoS4VFREv8iJOpHnEM7NzmaasdagR+BAOaxn7Ew17CkvM8AEYChmWA9NIpZxBT6Im3EfnsAC7t0E&#xA;&#x9;&#x9;&#x9;&#x9;&#x9;&#x9;&#x9;&#x9;ngeyLIAzh2iPXFMHmAHBkR3rAzvoi0ajqR9tlPpChgiSrZCzcSBJWxDC7a+mksGpGGtF2qD6W/2F&#xA;&#x9;&#x9;&#x9;&#x9;&#x9;&#x9;&#x9;&#x9;ZtQu/DJxin2TdMCWeQZrIsOaSPA+5ahRMWG9pC/WN7MtUiiPNxlLXFZilbMJl1itQr5Ly+12CVrL&#xA;&#x9;&#x9;&#x9;&#x9;&#x9;&#x9;&#x9;&#x9;wwz7LHktkqnE8M+OGApoHnr/z7piJqtgKCJpN6mFp0FwAG/9vyFxZEZRRK9DYmg2D9z1IWNxPkbS&#xA;&#x9;&#x9;&#x9;&#x9;&#x9;&#x9;&#x9;&#x9;3madWmwIViNkONKkGGkOPOI2uBU3a91IbZtTNyglZiGLjAgQJiLk3SB4nbooELSEBQTipsgMEHyi&#xA;&#x9;&#x9;&#x9;&#x9;&#x9;&#x9;&#x9;&#x9;M0Dwlc5AgmWK/5CLXq/QT1KWy3yZIs15U+4diDGtV1ARp17dl3agNqNtY+qF0hka1BI+TIkP7USK&#xA;&#x9;&#x9;&#x9;&#x9;&#x9;&#x9;&#x9;&#x9;WG5qaIpdTX5BK7M3PEc9Q97pu+qifYcz3PMZMb5hp7M4VNFQeqFbjSH+3Ly7yoWen7xdWV/1FwAA&#xA;&#x9;&#x9;&#x9;&#x9;&#x9;&#x9;&#x9;&#x9;//9ivSihpt0elzVVl0P+NBOLmZe4NO+/IGE5ufi/s6KyVCX5/16TVlFPAbWXiv8/ZXVjfQPsAcxw&#xA;&#x9;&#x9;&#x9;&#x9;&#x9;&#x9;&#x9;&#x9;8GRl5OVkExFjlOYUEVUVNRN1FonmiOCK4IsWiNZIYE4UKWAq4y8QERYTkzIRYtLSUjNh4xJjKAS2&#xA;&#x9;&#x9;&#x9;&#x9;&#x9;&#x9;&#x9;&#x9;yBlBjXJ9HXudfB1W5AYApPGvIMrDAxXj4YDUNAJRPCKgOOCRAYU8T4Y2JBhBNQ0wRG3ArXgQBgWd&#xA;&#x9;&#x9;&#x9;&#x9;&#x9;&#x9;&#x9;&#x9;Khuk8a6CpdmJ0sg0N2Z1M4/0sO0PW/Tve1JCTkZSPCPvkor3k/irP3UVbnV39Q11dtud0f8rly9H&#xA;&#x9;&#x9;&#x9;&#x9;&#x9;&#x9;&#x9;&#x9;QktcWDo6MZ5R9dAORqWUxDQrz9fpcZ6+3k+nzX3k7uWelAQqI0D5YRMwP/AxyDLcdxC1FPIUymTK&#xA;&#x9;&#x9;&#x9;&#x9;&#x9;&#x9;&#x9;&#x9;4GURAyZ8cWDCL2Ng5IenfaCn+EUZuMCplg3cFt/x/xG8eb4FXNGAUhY0EX8B5Qhgki2R55fXl3eQ&#xA;&#x9;&#x9;&#x9;&#x9;&#x9;&#x9;&#x9;&#x9;T5BnEYcFnTg81YpTJ9XKIVLtW9gQIZgdC6vxIJU4JIWyICpsYCUISYubNk5O+332XwdjyS1GxsgZ&#xA;&#x9;&#x9;&#x9;&#x9;&#x9;&#x9;&#x9;&#x9;q85XVUYc69q1q/9qZH4+0/PT/7ZF21uwXrQ3j/935Nr6D65G6r+btSzdXwDTGDAUWeqBocjJsGET&#xA;&#x9;&#x9;&#x9;&#x9;&#x9;&#x9;&#x9;&#x9;qykTqAQRBXmAiYmd0ZSDmZ2DgdmfG9TC3vH/igM/OFBSuPm5GZlYYeHBCg0PgShWRnA3naxQeQAL&#xA;&#x9;&#x9;&#x9;&#x9;&#x9;&#x9;&#x9;&#x9;lTfQUOFCycugzPxFG1w7QrMueMAa1DkEZlCW+r/8TO1/K48xb2dV/Bez4a8x0Eeg/POYdREw/6gw&#xA;&#x9;&#x9;&#x9;&#x9;&#x9;&#x9;&#x9;&#x9;8jlYszNysrHxybIJ8ynymfJ5MjryBfKlsqVyJ/OV8JXI8CuZOigzKivzMAsIiJvwMMmaMHOVcTIq&#xA;&#x9;&#x9;&#x9;&#x9;&#x9;&#x9;&#x9;&#x9;CShxCig68gILQm5oQaiINByq+P+fgzDIS4o5DCzgtCUATVvfYGnrCXraAgAAAP//bJnPaxNBFMd3&#xA;&#x9;&#x9;&#x9;&#x9;&#x9;&#x9;&#x9;&#x9;ZjLpbpJtks2mtRFaSm3aqpCStVVpJduDUKGI0NuiGA9RkUYt+KOI4MGDCP4B8aBY/4AKNod6irAa&#xA;&#x9;&#x9;&#x9;&#x9;&#x9;&#x9;&#x9;&#x9;8KjYg4LtrUJL46WnlN0682YnLuohYXYJGebN5zvvve+ABwHn4r4N3bVyN5/M23mckwHNSW3mslqi&#xA;&#x9;&#x9;&#x9;&#x9;&#x9;&#x9;&#x9;&#x9;48QIbfY4msGn0ECbWoL/lXZ9OIhVGB9wmVnhUCgIjKxCmj1c2hWqjQSSTSmcKK5XqACVNH8xeZLf&#xA;&#x9;&#x9;&#x9;&#x9;&#x9;&#x9;&#x9;&#x9;A9DXD/zNJyv+xtVrt9EyWniEtOfGwL3TZ9/cavs/0DiKlhuz/iKev3lqvly+goZcVEEvzpzbOXQ+&#xA;&#x9;&#x9;&#x9;&#x9;&#x9;&#x9;&#x9;&#x9;NzDmN/yWv+k38v2ouiI4o1NsV+Jo9C2ZUDlnJoRITalYVWmMNXdU1fBMKhRfHCqcsUxGqw42WdPy&#xA;&#x9;&#x9;&#x9;&#x9;&#x9;&#x9;&#x9;&#x9;XuaZdj3IRXv1IPhbgjZFlaG3h+G3BuyAgDgDoV/Sk7qtX9CJSqTDQuQ2ENmME5PVGl9gFiqZph2m&#xA;&#x9;&#x9;&#x9;&#x9;&#x9;&#x9;&#x9;&#x9;KcxCJcpUwg0DPhUfANN0IfEP051n8UIpTZem2TYtHhN3HZxui31bdKrp9TWb+GcTf/NG6GdvDc+y&#xA;&#x9;&#x9;&#x9;&#x9;&#x9;&#x9;&#x9;&#x9;qD5lB+E6j6pSnxn6v1MPDv6fMJLQOBLK76TTOh5xtEgxSmKkiFS9GlPjTswkFDuBgw+2GFk72ADC&#xA;&#x9;&#x9;&#x9;&#x9;&#x9;&#x9;&#x9;&#x9;iSScDXxYN+HLBRe/2lnuXjHlsc8W2M5eMezas1J+YjDLy/l1r+66eM51a5HlWm3/Ms+Axw928DbU&#xA;&#x9;&#x9;&#x9;&#x9;&#x9;&#x9;&#x9;&#x9;PM9s4wZ6iLBhZUlXV/wE0TIZI6hQxCoNubJVxzDheA+4aEsttqQWW1KL3+0+QQYwgYGJ+73JXhSt&#xA;&#x9;&#x9;&#x9;&#x9;&#x9;&#x9;&#x9;&#x9;9HAPK6QlqyA6K7i0Mf/2q7hg8PavT+OvJuNjS6WL1dzhpP8RI/T4w9d04l13/9GR0TtzpPJS+Q0A&#xA;&#x9;&#x9;&#x9;&#x9;&#x9;&#x9;&#x9;&#x9;AP//lFrPaxNBFJ43P5LM7GY3bVyzUVkbS0DMQdG0JAdxwXqop0JrmoYuLaXFHwdb06bQXupBUARv&#xA;&#x9;&#x9;&#x9;&#x9;&#x9;&#x9;&#x9;&#x9;Qj35T6QXLxIQxIsnL+JNDyIeJPRQobiJs7O7JQVF3NOyl9k33/e+7703I6N6L3OhpXLBcDfyvAbz&#xA;&#x9;&#x9;&#x9;&#x9;&#x9;&#x9;&#x9;&#x9;sszk53mF3+R3+FP+kSdNENyBPL4AJV6FKh/TJmGS39DmYUVroq1UBmPyBN4BhrYMOsXbWJP16yMB&#xA;&#x9;&#x9;&#x9;&#x9;&#x9;&#x9;&#x9;&#x9;KRylkhRtIcz0CLqEXESn5LL3JdUhNcjvSLeJorCkufEvjh9R+4js+zHH9//Occ+7HM6rFLmrYUHc&#xA;&#x9;&#x9;&#x9;&#x9;&#x9;&#x9;&#x9;&#x9;6Wz7Nu3A48y279lBTfygWShAUjEergBr9fp++7nk/IeufxvvvuwlZTH8k3B/AkV6ciD3UIcX7lhN&#xA;&#x9;&#x9;&#x9;&#x9;&#x9;&#x9;&#x9;&#x9;QAVX2LhYxYtklS2KHbxGdtia0G7xmmhoZJlskJbcZIEJT2CEqRt3FEvhhLTUoKofoG4QKVVdgZR0&#xA;&#x9;&#x9;&#x9;&#x9;&#x9;&#x9;&#x9;&#x9;OkFnqHySGicg3UtoMhOUHeh/lKhDN63M8wRyYlFyx8PRX9jiKwKqaTQ6pdawFfP0UI0M0zhrTBmE&#xA;&#x9;&#x9;&#x9;&#x9;&#x9;&#x9;&#x9;&#x9;paLfY7EqRW7rnmkwdfDD1ChRWm+w59lk5v8N93tsuD8iw00fK0NKpUEvUV+GcjGEF8PBzfWZ+l6Z&#xA;&#x9;&#x9;&#x9;&#x9;&#x9;&#x9;&#x9;&#x9;3qPYmwvuHyxT8OZk9xPg20ReU+oXjELgzwAFdvC2t7TZW3kFBjyDh5Bl5NcuuXvoS1DfkKuynlvv&#xA;&#x9;&#x9;&#x9;&#x9;&#x9;&#x9;&#x9;&#x9;f2afWBfl0Chk3HMU0YSma8M5lEvk9fzwLMyy6eSCVk/Xhxay07mMFZy22kHgXIW/ybcsfLps4UKZ&#xA;&#x9;&#x9;&#x9;&#x9;&#x9;&#x9;&#x9;&#x9;C/vYUa89IHTyXQVsW+R1/9ugXu5FyvY1FrQvsaB1XUsp2nrRLEIwW79WJA6NMHIiaNINR8HhWGYM&#xA;&#x9;&#x9;&#x9;&#x9;&#x9;&#x9;&#x9;&#x9;n6nHqJnKtc2TnP8GAAD//wKSbOB+F1gxf4YKUicF3MCGc8DVNjCkwQ1AMSFRSBsQtaktLMAAqbWN&#xA;&#x9;&#x9;&#x9;&#x9;&#x9;&#x9;&#x9;&#x9;jRhY5aITkyNjfi+c++9/VFRiQkwEI+usBf/d//15+PjfX0aOe/cY2VnVUv7d27Hj393E1LSM5GRG&#xA;&#x9;&#x9;&#x9;&#x9;&#x9;&#x9;&#x9;&#x9;hZ3bGBXTkzIy/yYyKjFaAzvi9/7dBnZZzKEtbJZpwDwmwCDPKOWgaiViK+st4i0bwBfCn8rPLmnC&#xA;&#x9;&#x9;&#x9;&#x9;&#x9;&#x9;&#x9;&#x9;wC7AzsTOzilhwsXMycGvKK/IJIjSaRSEN795owRFIUVRAQMLA3LAMyDq7R8O3OD8ARsm/wCr4l/A&#xA;&#x9;&#x9;&#x9;&#x9;&#x9;&#x9;&#x9;&#x9;mkyvoF3JfEV+RXtFJkl2SBm2JYodGglcUewinOBijBOWGzjhuYETnBs4YbmBE5YbOGE2ABlPwYmD&#xA;&#x9;&#x9;&#x9;&#x9;&#x9;&#x9;&#x9;&#x9;M0cBvSv5BTYNDWpkQVuhsW+Ruo/g2R3kUXZY85xlmqud76UFx44xTmnb5REae87M3KA67sjyimnA&#xA;&#x9;&#x9;&#x9;&#x9;&#x9;&#x9;&#x9;&#x9;TiILf/JKO1/fv8BaXNfAclW7b5GKvPTftdr6BlnQPs4MaAxoOBhyMMoy6jJaMVrKuvJ7iHjIRjGG&#xA;&#x9;&#x9;&#x9;&#x9;&#x9;&#x9;&#x9;&#x9;8UeK5DNmMiVwpXLXMZZyC4IqBAEGAXYpEyYH2BQbE7g4A5FsoQ5MjExMrBIm4DoCFGUOisyC8G7S&#xA;&#x9;&#x9;&#x9;&#x9;&#x9;&#x9;&#x9;&#x9;NmA08fMy8oLiQhYUWLwyoJDiBbczecGzYLy8AgrA8hcUF1zgWJFkhkUCtGpxEIxi5gTPmIowkFOl&#xA;&#x9;&#x9;&#x9;&#x9;&#x9;&#x9;&#x9;&#x9;fITWJIgoMALXJPrasZaWsMmkWFBR9BZaFIFHOsE1icQB0Ew2ZCkLvDMvjNZdmvHv/z++fy+PMS5s&#xA;&#x9;&#x9;&#x9;&#x9;&#x9;&#x9;&#x9;&#x9;3+IRGL2oL1HXRLss4OWJuB5DXW2mgL8bWC8q6xrPLl9405xxsUOykqz433OKulq5QH+3AfvkTMA+&#xA;&#x9;&#x9;&#x9;&#x9;&#x9;&#x9;&#x9;&#x9;hQGj/04GfWDaBflPdweUoQcq8HtBLAmwx8XBpBiYFAW3n0QAAAAA//8C90GB1Yk8g7I0h4i8JoeG&#xA;&#x9;&#x9;&#x9;&#x9;&#x9;&#x9;&#x9;&#x9;hIq8ir4lh5mAhbCpvJmWF4ergKewq7yXuotWBFOodKh8qG62ZJp0qnyadoJ+tViBfIFCiVaJbpuQ&#xA;&#x9;&#x9;&#x9;&#x9;&#x9;&#x9;&#x9;&#x9;MqcDn4A5B4gAVmqCUhossmyKiqom4MFnYP9fUQNW12vA16poiEqBCyEpYPbaCgpwKUGU8WlBWPbd&#xA;&#x9;&#x9;&#x9;&#x9;&#x9;&#x9;&#x9;&#x9;DkwKDIpSnAywAhGUIR34wVmzxIjfqMCIiTPLEDYTDp/pA5HwEQLQOD9oTkA0QjBcI0MwXaNSsEyj&#xA;&#x9;&#x9;&#x9;&#x9;&#x9;&#x9;&#x9;&#x9;U7BNY7rgTA0u0AwAMC7h06MisKEEYLuKBT4trg6bEwD1UlQQ0wFiYqxMgZ4BV6ct/Pe/la+QUaNp&#xA;&#x9;&#x9;&#x9;&#x9;&#x9;&#x9;&#x9;&#x9;x9nEZO/1Scf2M9p8ngtswfGF/ns9cf7BhEqHN0HLVjCuDF9l7eBhY/0jLq2rODlOSkRKROv04t3v&#xA;&#x9;&#x9;&#x9;&#x9;&#x9;&#x9;&#x9;&#x9;bXReecS3ZMRmyfBpiOpsAs0iAcu9d+DRx5WO4tBWMi9SKxlPq9pBKoqRxZSNmZmDn1Oe05+TmSGa&#xA;&#x9;&#x9;&#x9;&#x9;&#x9;&#x9;&#x9;&#x9;kQkUeowiLMBeISjLAJsX0f6soPHLVw7c4NzBAc0ar7ZA88QnjDzxHzzCyQqbgf4CLJSegGe4YI1p&#xA;&#x9;&#x9;&#x9;&#x9;&#x9;&#x9;&#x9;&#x9;2Ootlnd/3xz7+wbofsVf91kVN4DaSjEMDOy94LYSmyOwG/v/F9zdPP8/QWIbWIICa9t9UMHfkNIZ&#xA;&#x9;&#x9;&#x9;&#x9;&#x9;&#x9;&#x9;&#x9;KMgIKUNWR7kzpzNXMjPzMnIzsbAwsQJbKNzijJLMEqySHJLcmsyaHJrc1kyWzEYsJhw2nMZcVtze&#xA;&#x9;&#x9;&#x9;&#x9;&#x9;&#x9;&#x9;&#x9;TC4sLhw+nM5c3tyhjFFAX0exhrNHcoZypTJmMaWyZLFmcaaCGmosxRw1nEVcNdx6PCJAx7KLsLEC&#xA;&#x9;&#x9;&#x9;&#x9;&#x9;&#x9;&#x9;&#x9;w4+RGdwS4wSTDMwMnKABB2CxwsbExszEYc1gwubN4MJWxVDKxsZQBGw12fPF89XzsbCl8wq8AyZJ&#xA;&#x9;&#x9;&#x9;&#x9;&#x9;&#x9;&#x9;&#x9;8IS8uGUseH0LaDYeiBhjwUOu0FlAIDJmBCH23n+19/8d/3fu1r+y04yWjCbA2o/RnPXiL32WK791&#xA;&#x9;&#x9;&#x9;&#x9;&#x9;&#x9;&#x9;&#x9;WC/+1mK59luO5RGoRsz4/5BFlqWCQY3BmPEDMCzlkOYtZf9/gPag7KN4uFiUJblElVm0hUDxpgMm&#xA;&#x9;&#x9;&#x9;&#x9;&#x9;&#x9;&#x9;&#x9;dcEkAAAA//+K5AuUi9HJ5EuQzdet5qoSKZCt1uFi4tCwNRB0EGQSFFTgkNn9/xTUJJEofxlGGRkJ&#xA;&#x9;&#x9;&#x9;&#x9;&#x9;&#x9;&#x9;&#x9;ewUWQ0cOYOueX5ZRdvf/b7BIkxVUB/WYf+DoMX+AZWVTcDAywYa6mGCrJpjAs0/gtUpSDLLcDGzg&#xA;&#x9;&#x9;&#x9;&#x9;&#x9;&#x9;&#x9;&#x9;VqsQvB8tCG61gtdDQNuroJIcWj2DV3KxgbvVbJCmrignJxusgz3RlN9U3tTelFkPND4P0gsuHPlA&#xA;&#x9;&#x9;&#x9;&#x9;&#x9;&#x9;&#x9;&#x9;WvQ4QFr0YI1bPchKhM1RetLcwO6agwW4iAR3NLk5QDq5waMd3DxgNrj1xC0GsoobvJSHG1wPccPm&#xA;&#x9;&#x9;&#x9;&#x9;&#x9;&#x9;&#x9;&#x9;Brghja7NUdytSOPB8FYtdBodAgQtBf7C6hhQ/QKq18GLFLQhgyXgGTRQgollAI3Vm0JHO9VAk5Vm&#xA;&#x9;&#x9;&#x9;&#x9;&#x9;&#x9;&#x9;&#x9;KuZYF+4wC7JBRz5Bc5SyuyVDNfSrgqZfyk1NY5RboqulUWDrtS2Ry/xCatl6B3un3WEvXQJTSsqT&#xA;&#x9;&#x9;&#x9;&#x9;&#x9;&#x9;&#x9;&#x9;l5QL2gqJy5+YXT9XV1eBQ9YhREJcQF11P7+Kur7epJx/ssBEKSIsnhiakOgLSos7gWlxApsIgzCD&#xA;&#x9;&#x9;&#x9;&#x9;&#x9;&#x9;&#x9;&#x9;AmOkg6YJkym/taiBgguTK7+3qINCuFC6UD1HtQwPHyebuJMgCw+jnAMbFzeHiKMw0tCACFICFkFZ&#xA;&#x9;&#x9;&#x9;&#x9;&#x9;&#x9;&#x9;&#x9;4/EFXOKI7ICujBSRRl4Z+QHWZPviwA1OFnywlQ1bwElgB1Q7A2hVDqRzPUFJXsleiYlPmpMDtioI&#xA;&#x9;&#x9;&#x9;&#x9;&#x9;&#x9;&#x9;&#x9;voQI3rnh5IEMa4GbZxwgozjBXSNOKR7QiAMoXQAZjyBNCB6wYh7IOAuY8c2BG6SThw2kkwfkTPBy&#xA;&#x9;&#x9;&#x9;&#x9;&#x9;&#x9;&#x9;&#x9;oh3/328DuYGnQxG1cwqJd0TbDpJCwIkA1LaATJ/CVqewgzqmoFgWgkxLswtCVk9M8Hd2X5UW3+fK&#xA;&#x9;&#x9;&#x9;&#x9;&#x9;&#x9;&#x9;&#x9;s2GP/6b8Y08PtUwOWuERUOw5ZyOTec8DH39/XTUTNpG/VxyD/134BwAAAP//enbivLvF3wYVmbPA&#xA;&#x9;&#x9;&#x9;&#x9;&#x9;&#x9;&#x9;&#x9;wi7z/3PmzyzlDIoMnx18+JX9lZm0GZX4tMRUJKwYTfmsxEwlPBn9uVz4/MUcJSIZQ/kyGVP5qhiL&#xA;&#x9;&#x9;&#x9;&#x9;&#x9;&#x9;&#x9;&#x9;+YQFBETseVgUFaXsmTn5lcFdV2XwskJ44/keLCbugaIIyOpVFodlOHFY30Uc3ncRB2crcaTYgQ89&#xA;&#x9;&#x9;&#x9;&#x9;&#x9;&#x9;&#x9;&#x9;ckHaDgpRnODMCBqKBMURuG0NbktwgsMb2Hj+AQ5mzlYlpHwHDlMoH3nuIBY8eQCdiRZgQJo2gOQc&#xA;&#x9;&#x9;&#x9;&#x9;&#x9;&#x9;&#x9;&#x9;8EJO5s9xK+MrT3l4BjDqfk/Y6csVtj18wc6tSyzL9DU9RLncdI3cPTzuTGYUYrQwU7/o7HH9wqmb&#xA;&#x9;&#x9;&#x9;&#x9;&#x9;&#x9;&#x9;&#x9;chKi+oLA/JEDzB/O0PyR7qBqI2UgY6HgL+Uk46EQwZbBViDAKcTIJMgq4cjHwsgh58TKJSjCBMwb&#xA;&#x9;&#x9;&#x9;&#x9;&#x9;&#x9;&#x9;&#x9;yGXpB5QFKohyFVspygspRZUcoFnkm4MyuDAFV+4M4Fk5BnCCZdACxxAXtDh95yADLkX5IetEwVE1&#xA;&#x9;&#x9;&#x9;&#x9;&#x9;&#x9;&#x9;&#x9;CZJXkJYaQyNFGpJlHIRha47BI8jS0hywWOOAxRoHJNa2R3GAF3Vx7Pj/z0Eb5AgOsCM4wCMRHGBD&#xA;&#x9;&#x9;&#x9;&#x9;&#x9;&#x9;&#x9;&#x9;OMDLIjnAGQ1kEJBsVcRaciKJ/YXlHgZYZrEHxim4iFRWYhIElY/gAlHQmBl5vpnFeU/ghvQTrwNd&#xA;&#x9;&#x9;&#x9;&#x9;&#x9;&#x9;&#x9;&#x9;XbYmRnR479njU+E+b0PHtIAlpW5+jCaMgn33/HwCVNUZn/z6z9SoJHXn1PHz7sDYzPr/jCWBpYZB&#xA;&#x9;&#x9;&#x9;&#x9;&#x9;&#x9;&#x9;&#x9;AtgTUnRQV2PR5jVgsea1kXNm8eb1loviDRDL4k0Qr+CtkuNjtJGX55exFWXhBk0+gtcOcnOz2/MD&#xA;&#x9;&#x9;&#x9;&#x9;&#x9;&#x9;&#x9;&#x9;yxJFcEWoCM4qkqBhejAD2AJGRLUkLAkAW8uSUgwK8CkhYXDc9CuCek32iszy8MWM8JWP0GWSwOhh&#xA;&#x9;&#x9;&#x9;&#x9;&#x9;&#x9;&#x9;&#x9;BIcsaN0hWyijtBAseoR4uAEAAAD//4JEjxA0U2lECYHjRwgcH0LgrCUEjg8hsF4hJpClQq0KaCPF&#xA;&#x9;&#x9;&#x9;&#x9;&#x9;&#x9;&#x9;&#x9;sC4pJGaMIU1ubXCHCDxAqYiYdwMtAlCADBEIiUKrK5aEPyftzEz6w4qeG3LFH8v99+rfCUbtL4++&#xA;&#x9;&#x9;&#x9;&#x9;&#x9;&#x9;&#x9;&#x9;bmecPG36Zh4m6fSZhgYG0TpnNcyAPU5RYAZz+vfjs9aURZtaQC1KFwYGZiE2OQYJRkZgK0gAKfT4&#xA;&#x9;&#x9;&#x9;&#x9;&#x9;&#x9;&#x9;&#x9;4a0gwygpcF6QAvc+OUQsRUpZmYEta3tRBm4+Ow5BVl4OBmDzjomTn5MPmEtgaZ0bFlbc0LRuA6zR&#xA;&#x9;&#x9;&#x9;&#x9;&#x9;&#x9;&#x9;&#x9;IdU/uOIHlzXc4MTKzQiu+KX4BRn4HHgFzPnEQDmOTwFkKx9YDx+8TuDTA7mCD5TfwK0WPiGQOXyg&#xA;&#x9;&#x9;&#x9;&#x9;&#x9;&#x9;&#x9;&#x9;WRjoSnWQWXydksiJ3MjI6C+crQ+dS7E3Bg9ig6c/Ics6IelbFDIZpWxqDGwdgJI+sxCXfIpaZS5j&#xA;&#x9;&#x9;&#x9;&#x9;&#x9;&#x9;&#x9;&#x9;8L/Ne+rrj+22T9VijeMUzu5Rm/fHkXn/PNXjV3k4QCXVv0gWZ2DaVgb2Khc66NoK22kZ6VgZuHB6&#xA;&#x9;&#x9;&#x9;&#x9;&#x9;&#x9;&#x9;&#x9;C/toOel4G0QzxrJGiWUx5rBmidWwFigIKrEKKYpqOMixsO/7fwBeYLFDJ0XYobN4bKHs7NwOzLx6&#xA;&#x9;&#x9;&#x9;&#x9;&#x9;&#x9;&#x9;&#x9;jqLs/GyMbIoqQuDGIqwgE0Iq7IQQjUUjcLQJwRqLQrBiTgi8UgycKqUY2CTAZZwDEWWcFGb5ZiRv&#xA;&#x9;&#x9;&#x9;&#x9;&#x9;&#x9;&#x9;&#x9;ZG/EpA2Lc21YTtKGl2/a4KygDY5nbWkJWLEmAUsdErDyTQI85SYBKt9UQQ6QAFdJEuDEIgHeTiAB&#xA;&#x9;&#x9;&#x9;&#x9;&#x9;&#x9;&#x9;&#x9;NgTEBpKthvDaHqlge4KjRQibOgPy4GWcqgCDIurgP3qZZ45e5v379+9L5MogLr0TKQkAAAAA//+q&#xA;&#x9;&#x9;&#x9;&#x9;&#x9;&#x9;&#x9;&#x9;U1aWC51dASwC3Rx3xSQ2ewKbDd6NDrM3tcwMWlr/78m/b5LiB4RM9TTV81zSXJwZFRnZJ1z0cfdX&#xA;&#x9;&#x9;&#x9;&#x9;&#x9;&#x9;&#x9;&#x9;1zD4c40pUUn2wrE9h+yBeXAnMC/FA+s3McYqB2FmUTHRUlFmAV4OJ2EWPkZGXg7y67If4JYDE6Tl&#xA;&#x9;&#x9;&#x9;&#x9;&#x9;&#x9;&#x9;&#x9;B+4ZgDqi0PHsPw6C4MhmQYpsUJ8AyvgHbQ8qwfoIW8CRD2rVy4LbI+DMxgAZOZooIS+RIMEkgJ7l&#xA;&#x9;&#x9;&#x9;&#x9;&#x9;&#x9;&#x9;&#x9;QYUArEWIkvc5kPK+FC+sRcgL31TCC1bMC2sR8sIKeF5wXxvkEl6wEbygWXjwYBZotAk8ttUhjlHC&#xA;&#x9;&#x9;&#x9;&#x9;&#x9;&#x9;&#x9;&#x9;ok3QwYfFtUFDT/aQvoGisiBiqTKsgSgmyhK/R0hCMs7bd4Xvnj0Re5K37mOq8W1X09L0sf6zD9gU&#xA;&#x9;&#x9;&#x9;&#x9;&#x9;&#x9;&#x9;&#x9;POsZdOssMOevBxamzay3QavfGCc4ioPHERADowg2G3gCGhJlrDA2sHvOAs0WLECGoy08dmHaGFGM&#xA;&#x9;&#x9;&#x9;&#x9;&#x9;&#x9;&#x9;&#x9;+AJnsyKx2VEmCpHnXr/AUwwjEpsNic0KY4OcAptRATL2QXUdgC5ZFYlidGECpgxzJmY2VlaOek5G&#xA;&#x9;&#x9;&#x9;&#x9;&#x9;&#x9;&#x9;&#x9;zkngtKQDTiYJLOB4YwFHMgu4gGcBRzKLFCN4RT5jQj14wOQebBIWGt/QuRBYfLPC4psVkiLB81L/&#xA;&#x9;&#x9;&#x9;&#x9;&#x9;&#x9;&#x9;&#x9;IaOJHRzwqIx9AongJ9rgYQJ7YLzCZyRR1+ubGjOD9ps1X7nCs2cPq8ThX6osscCAOfQvkkkUHGuS&#xA;&#x9;&#x9;&#x9;&#x9;&#x9;&#x9;&#x9;&#x9;jIJbuVhlWJkYd8M9K4/wrJidJCs3N78DO6+/OKN4PRcjF2MCAAAA//98WztPAkEQZu7BkUMUA+5l&#xA;&#x9;&#x9;&#x9;&#x9;&#x9;&#x9;&#x9;&#x9;8Qg+wBzqRkJiD4bCwkI7Q0LUf4CVlbHQwpofYGdib6INpQU/hMbOWFFYeDN7e7enaHOZYi+Xm5lv&#xA;&#x9;&#x9;&#x9;&#x9;&#x9;&#x9;&#x9;&#x9;5tt5MMJlsnWSWIhpGGURLpkqBjH1S0zhklVIhbIid+56Qw4qZS72OZUcOZF0TncA1BenoiunvQiS&#xA;&#x9;&#x9;&#x9;&#x9;&#x9;&#x9;&#x9;&#x9;jIgHyaEtjpPpJfwId/AL3EZo8NFqCgWDdnsaI2S6R8sP1BiVihyQ2n43SDf3142VUJGTp+B21/XP&#xA;&#x9;&#x9;&#x9;&#x9;&#x9;&#x9;&#x9;&#x9;xOEpY4V3eES9um+T4sJz3g+C4PLEvHug/YfwcRXGNxPckGMYGgIgQYCpEJBBBBTiSYEEAV+qlhV3&#xA;&#x9;&#x9;&#x9;&#x9;&#x9;&#x9;&#x9;&#x9;+DOh0P3HyePWPx5VNM0AyKETjqKYJ69ZFE2i7l3lBnDlRPooxD4KdB6Uj0LMSMDClwFvTSTcW4mH&#xA;&#x9;&#x9;&#x9;&#x9;&#x9;&#x9;&#x9;&#x9;knrJO394Ju0/Xo3H2bLMAI4X8oYds9u9DoGcuFVWk+1Ux3/+JICeEkCTnVQAmWkBZJaaLki6aOlS&#xA;&#x9;&#x9;&#x9;&#x9;&#x9;&#x9;&#x9;&#x9;1LxA5GhuntVkW5MtTTZTqetDs5dimkd9s242S/VSs7fW23rddl4a0KhV/Zx3EGxYVRuKfq4joCZa&#xA;&#x9;&#x9;&#x9;&#x9;&#x9;&#x9;&#x9;&#x9;oiOOxVDYfxtRIHfy0HCCLglAHUYghgOYB8mmyISWya4tOuRHpv2kdAdYKS+TUYm+w0WxkfeXZE77&#xA;&#x9;&#x9;&#x9;&#x9;&#x9;&#x9;&#x9;&#x9;BgAA///aEsUPq+74odlVJoof7B5+sHv4we7hB7uHX0oApbhAXhwjgDR0IwBKVCCHCoAdKrDj/yXI&#xA;&#x9;&#x9;&#x9;&#x9;&#x9;&#x9;&#x9;&#x9;2J2AGshIAXBDTABUtYPcJwCr44GM3+B6EMj4D5nOEZBHrEOCuVMK7k4psDulwO6UArtTCuxOKSkZ&#xA;&#x9;&#x9;&#x9;&#x9;&#x9;&#x9;&#x9;&#x9;WMqXga+/kQErloEVyjKwLCADb4TLcIGMkIGMKUIYDnwgV8gkygs4CDQIMAvox37BrJYFkLPEX3jL&#xA;&#x9;&#x9;&#x9;&#x9;&#x9;&#x9;&#x9;&#x9;zRK5aQeprWNB80TA2trmr5GgEHRDnjY2gFyRi4mJCqLV66KQlh2kdmcX38MrKh4W6D/Pn5kFwvSd&#xA;&#x9;&#x9;&#x9;&#x9;&#x9;&#x9;&#x9;&#x9;Daro1ycXzVcv2pO9Yz1TjUebhraOv624rdxfU6Yar1YNbW1Q5c8SW+MZlBCaEHr/BKwNB8zBYowF&#xA;&#x9;&#x9;&#x9;&#x9;&#x9;&#x9;&#x9;&#x9;6G04Vlq24cSR2nCQVVKwBts/2JzrA1ACQmuwgaYFBcG5hbimG7jRBmnA4W66gXMUSpsNUj7CG3NU&#xA;&#x9;&#x9;&#x9;&#x9;&#x9;&#x9;&#x9;&#x9;aLoR0XITJaLlBo48YMMNPB7xkKUQGHPcDOKMCQ5S1nwmAiYi1mLefC4CLiLeYhz89pwsovbMXDwo&#xA;&#x9;&#x9;&#x9;&#x9;&#x9;&#x9;&#x9;&#x9;w608/z8AAAAA//+CRyEPUhTygCMMPIYJiUIe0KpscNDzSEs6QOPmD2zU9QEks0M3pu/4fwvWyn4H&#xA;&#x9;&#x9;&#x9;&#x9;&#x9;&#x9;&#x9;&#x9;G/T7Bht+/QVdyTpBkl9SXtJeMl+SRQhWEQrB1ikIQeNMMkqIBdzlA8ecEDi2hKTZYHHMBuuFsUFH&#xA;&#x9;&#x9;&#x9;&#x9;&#x9;&#x9;&#x9;&#x9;L6Si2MA75KE7JsFdNjbw6AUbqCsgCXIVaCs8kASvdgDJAclWCWzN6liM9SeI5a9Iqxzge4JAPavC&#xA;&#x9;&#x9;&#x9;&#x9;&#x9;&#x9;&#x9;&#x9;fy9ev/33klH87WtGiUOrps9cuWrGtNVMev/e/zvCaMMoCIS2/w7/e3/z8uWbl25eB42a/0thmQCM&#xA;&#x9;&#x9;&#x9;&#x9;&#x9;&#x9;&#x9;&#x9;N9CoYKaDqhGTpaiRgjOTp6iTQphQulAdR40MF2zEnFXOgY2Tm0cEpQgWwTl6Dok5EWDgg/McdMQc&#xA;&#x9;&#x9;&#x9;&#x9;&#x9;&#x9;&#x9;&#x9;GmUXYJnvA3RxohD6ennMuPuGOXQOXw6KOoaOPnTOQ+zQ+TdYaoOPoUOLZqLG0LEOouMfRYdnNfRR&#xA;&#x9;&#x9;&#x9;&#x9;&#x9;&#x9;&#x9;&#x9;dD93p80p4b2ee/Z478469fBQV3/gEu+AYs+5G5hsOh76eQWqafzTYf1Zah/67/y/N6dOuFn+bVeR&#xA;&#x9;&#x9;&#x9;&#x9;&#x9;&#x9;&#x9;&#x9;usIAKUWZi4AtcyGG2w4iDLwCvAq8zDyc/MCy1ZmLn5WTA3mfwgcHQXB4M4g4iBSIMPGww4KUHRak&#xA;&#x9;&#x9;&#x9;&#x9;&#x9;&#x9;&#x9;&#x9;7PAgZQeHEjs4SNnB4cEODlJ2KU5YkHLC23nQ8IcFKWiVCcQqThVQeHJyQcfIAQAAAP//guxVATJ+&#xA;&#x9;&#x9;&#x9;&#x9;&#x9;&#x9;&#x9;&#x9;QgbLO4Sxll6CoEEHBnDFBVq4C25XY1RHzEVcWv5m4Yu89+wpWB1pqKPDPIGL09f2z3OW2KVR3qzs&#xA;&#x9;&#x9;&#x9;&#x9;&#x9;&#x9;&#x9;&#x9;oEV//58yX2epYDBmnOkQzsbEKS3KJCmtxqmlYsRpo+LE6aMSxxorFqwYph9ilM+aI5agkKKfaiRS&#xA;&#x9;&#x9;&#x9;&#x9;&#x9;&#x9;&#x9;&#x9;xVovWKJQqVGi3cXYwdsq1a4xhXGWNDcDn4QmixxzgxKjkgMoXSspqdnJsYCHm8A9DXZ2bjtmTkU+&#xA;&#x9;&#x9;&#x9;&#x9;&#x9;&#x9;&#x9;&#x9;cLEDCg5NcNhpgkNNExbSmrCqQhO6mVkmSlPaFFzISYCHQSXAC+QkwOW9BDBAt4LHb/hgZSMfbHaJ&#xA;&#x9;&#x9;&#x9;&#x9;&#x9;&#x9;&#x9;&#x9;D2U0iw+peuSDZdLtUXzSDIoS7ODqD5oV4fXgF+h6IxFoVoTnwB+wHPjDQR2cA/ugk5nxpvWmrOzg&#xA;&#x9;&#x9;&#x9;&#x9;&#x9;&#x9;&#x9;&#x9;Mo8dPAPJLgVOEG0m4FlFxNwidEGENnT3M6xEg4/TAgnwLkjopi7k3pKpiTp83QNsRAk+MyIOWfsg&#xA;&#x9;&#x9;&#x9;&#x9;&#x9;&#x9;&#x9;&#x9;LsZ8/e/tmvNuXJG3Ump61NRyNBpNJ1dbWlmszU4568LlcS45vU9bK86kUbvZ3Z3RaeYRa+XLzv4B&#xA;&#x9;&#x9;&#x9;&#x9;&#x9;&#x9;&#x9;&#x9;YU5KShKcEnzq0/Ncqwz0zQ2VT5p6+vu5KiuL8UhwyXl6AVOM3f9XTH9Z5zFIM1x0UOFhlWLVZmXm&#xA;&#x9;&#x9;&#x9;&#x9;&#x9;&#x9;&#x9;&#x9;FmC34+XmYpWWFrdn5vSXrZdl4mPokeXgFYBFqgAs+whAs49ylAA4RwiAk4AAuLMjAE4IAlJcHOyg&#xA;&#x9;&#x9;&#x9;&#x9;&#x9;&#x9;&#x9;&#x9;8Vp2UMdUELx0ETxmC81vsCzEDs9C7OApEnawGaCNE5CakV0cvIKxQwZ1yBaeh/QFvhlB+6bGxpDt&#xA;&#x9;&#x9;&#x9;&#x9;&#x9;&#x9;&#x9;&#x9;5pAZJ1Bn1Bi0rlpUURAxTs7017TWcPWm+vo9jC3/ajgkxHz99VLEuLj4hHacZgqax+j4b/+8f8wR&#xA;&#x9;&#x9;&#x9;&#x9;&#x9;&#x9;&#x9;&#x9;ydoaqtKcwHDaCGwBhANLHTHGJAcRbjZJ9ip2ZiZWUU5WQSdWLkYO6GQScg8LnCIBAAAA///CaMhh&#xA;&#x9;&#x9;&#x9;&#x9;&#x9;&#x9;&#x9;&#x9;Nt6+YWm8vXOQhQy1YrTZmKD1xytYI+CbgwzSUBsfZMQV0l7DPcqOb6SNA7aYmgPetofOIsGiigNW&#xA;&#x9;&#x9;&#x9;&#x9;&#x9;&#x9;&#x9;&#x9;j3GAYgdcgXCAjeCANdeAjK/gAo+jXRx9dhBtbgkegeAqxAbaWjOFRp0xIsoEjVnC98Svy9xwZI+A&#xA;&#x9;&#x9;&#x9;&#x9;&#x9;&#x9;&#x9;&#x9;lHRYkOda7z013gHXLzBd/dsSWqmto+FjzewEqiFsQbtcgHHFxnBzD7DT+Reym2NLFAszbNELG6wq&#xA;&#x9;&#x9;&#x9;&#x9;&#x9;&#x9;&#x9;&#x9;Bwpy8MAF/8FGD1iYIGWVRZQaiyabGYslmxuLJxubJqslqwNrIGsCKyubFNAiFilmJmYNBnVmCwZz&#xA;&#x9;&#x9;&#x9;&#x9;&#x9;&#x9;&#x9;&#x9;Zi8Gd+ZSxiomDgZWJtChMA48oJ2FzKxMHEyMoA01BxxUOAXMeRhkGLIYqhhYGHo5+DkYmZmFmVOZ&#xA;&#x9;&#x9;&#x9;&#x9;&#x9;&#x9;&#x9;&#x9;S5lZmGXA61Gb2IGFSiyweo0FFSrAINGGL6EGLWphiIUdMgFd0cJS/89m7z/7M4xRjMDU+XsxS+yf&#xA;&#x9;&#x9;&#x9;&#x9;&#x9;&#x9;&#x9;&#x9;duZKoNPCGBiA7o4F+tF8D2IREHjhD/c+jNVAfDxYVgOx8vLuhp5I8wm2SPYTYtEmeC/mF4d2cPOc&#xA;&#x9;&#x9;&#x9;&#x9;&#x9;&#x9;&#x9;&#x9;WZZZh1GLSZNZlUWNVYVDm9uE0ZrVhdGbNZwxgiWSNZw7lymJJYUjizOFK5u7krGWqYilhKOas5ir&#xA;&#x9;&#x9;&#x9;&#x9;&#x9;&#x9;&#x9;&#x9;iluOBxSU7FJsrGwMnAKcTJywpUBcbKHwVUDAUASd3aHPxswgBS7Y1cDJvY9PgM+eL5+PmYEN1LcA&#xA;&#x9;&#x9;&#x9;&#x9;&#x9;&#x9;&#x9;&#x9;t05hK9jYQPUSL7g5CjnQoxm65tkIXHBD1wyhLhkCVsLasB4jbNmQMDCchdnM/t1d9+/hv8dr/906&#xA;&#x9;&#x9;&#x9;&#x9;&#x9;&#x9;&#x9;&#x9;cpZRfDaj3CFQeDPH/gGF+XzmRBAG+sMGmPYagOHOzSjkyM3ACAAAAP//XFxdSBRRFD733nPv7Ow4&#xA;&#x9;&#x9;&#x9;&#x9;&#x9;&#x9;&#x9;&#x9;7ZqpuZuamS21FSX7ULil1Bb4R/Zj1pDlS1ESab9UVFQPhZgQFFE+BBkUCVFBEEshJRIbWIhG9PfY&#xA;&#x9;&#x9;&#x9;&#x9;&#x9;&#x9;&#x9;&#x9;S5C91UPm2Lmz6xYxc7iXw8ww95vvmz/O/aamsto3p/u60Cotw2OOaYXZLDHLCJsRETHiUMViIoYx&#xA;&#x9;&#x9;&#x9;&#x9;&#x9;&#x9;&#x9;&#x9;FTOqzFX+BqhnCZHAhEoY9Waj32HNwpHNhmM2Wx2sTeyTbUaHuccqD3DwVfNlvg28xnead5IaQ37L&#xA;&#x9;&#x9;&#x9;&#x9;&#x9;&#x9;&#x9;&#x9;72HKQnTpRQglMi5J6QqVJmexJid6k1+VREozxW1GMFuIfo+t84itikbUYwdspp13auxdNiqODL1H&#xA;&#x9;&#x9;&#x9;&#x9;&#x9;&#x9;&#x9;&#x9;Ip7Xxf+tlbqKuTVamVuYcUaJRtNV4dqHYXrN8LbMQzRdiYVnx+ld/cUn9thtGmdVLP7ZrWX33c18&#xA;&#x9;&#x9;&#x9;&#x9;&#x9;&#x9;&#x9;&#x9;CV/mOuzO5EetZHp/10o2YPQZGKTPDIsln2axTuakCSt5jj2Q/ZGVgTpTXF+zxkEVUwnVpNpUp1Km&#xA;&#x9;&#x9;&#x9;&#x9;&#x9;&#x9;&#x9;&#x9;MGSRKJTrWa3YBi3shDC5oXkoQyiwFtYjB8GRDsn3Msa4EJgFRUu4zhOxhB4zYDKBebgOd+NRAvm8&#xA;&#x9;&#x9;&#x9;&#x9;&#x9;&#x9;&#x9;&#x9;L/gljYgHiOcU84+An/8tS9MEy0trePLIqxF37TBrYQ62/jLYKEZ+D4k4eNWJcuO3CIrGXYH4Dwin&#xA;&#x9;&#x9;&#x9;&#x9;&#x9;&#x9;&#x9;&#x9;nTj7zyQWZh05B93tRo8qoa5JXzzgOcSBz3I3/WPgyf4z9FzhoxQfoXvEJRjlX+EKxaQsgC5ZwAqo&#xA;&#x9;&#x9;&#x9;&#x9;&#x9;&#x9;&#x9;&#x9;vUVxl6KR4mk6D70UJykOij7m0Hk8lMchJE9BSl6Dw2oRpPAGpFSM+gJSYid0iduwWHbDazVA+QY4&#xA;&#x9;&#x9;&#x9;&#x9;&#x9;&#x9;&#x9;&#x9;jGO07WWK43ABvwMYX2EHvoG9+BuSGIV91O7HIWin80rovgxCklfCA/5iapDap0YKkjqHn6Bd7yPa&#xA;&#x9;&#x9;&#x9;&#x9;&#x9;&#x9;&#x9;&#x9;vf0OiAispvwjfAaraDxbqY3rZwCU0rIFzkAvi7EnvENUo4lJeUgOqmHjlNHnu2jm+v3+G1bc6s/p&#xA;&#x9;&#x9;&#x9;&#x9;&#x9;&#x9;&#x9;&#x9;tMN2t/1zxvXAuWBdrpX7dubLvKV5Y/lF+RMF9wovz26Z7YaKQhPhd3O6ikMlE6Xv5z4uuzlvcfm6&#xA;&#x9;&#x9;&#x9;&#x9;&#x9;&#x9;&#x9;&#x9;8g/zH1QsrxhfcDWS7+G8Epr0lH/Q/w2CfwAAAP//LFzNbxtFFN83ealwsLtOvLGJTTK2SFTqJDg4&#xA;&#x9;&#x9;&#x9;&#x9;&#x9;&#x9;&#x9;&#x9;9qamTnbtlNbuHlIcd4WEUNSoR1BND4hbLFSXcGiSXsqlkP4HNeOwiVOnDgktcGpVSIFTaqACiY8G&#xA;&#x9;&#x9;&#x9;&#x9;&#x9;&#x9;&#x9;&#x9;I4HEZXmufPjt783T+1xpZnYOs1JEepPOK1fxd9LBLSkPhhSG03qf+Xe0aTZhz/wrtGce7Nl8rvmk&#xA;&#x9;&#x9;&#x9;&#x9;&#x9;&#x9;&#x9;&#x9;yXgTNuBFQeoNOFIhklO9cELiBCbNwDQlmIG0NEdgkIIRSsZhSIrBoGTCYMsv1Q06aNIw6TWYko4R&#xA;&#x9;&#x9;&#x9;&#x9;&#x9;&#x9;&#x9;&#x9;T0FSChNPEhvESaFl+AZw8WeLBsQfLeoX0KCkzwu0aRQQnTZPBWjtCEMf7SVuOE4n6OOUNEtJhyjI&#xA;&#x9;&#x9;&#x9;&#x9;&#x9;&#x9;&#x9;&#x9;K8QvEyeIx4iPtYuZgBHdO8r/pTD/UIzfHtv8h4c2/546TPWACmOSj6ziba9Y22u8zVHy9ozyx+Gf&#xA;&#x9;&#x9;&#x9;&#x9;&#x9;&#x9;&#x9;&#x9;ze+omYfM5nsdNn+WujpJvTtgjAxbASLtAC+1HUdhRCT4cuowjVcJNwkdkkzPOuEeYZ8ssGdhA4b1&#xA;&#x9;&#x9;&#x9;&#x9;&#x9;&#x9;&#x9;&#x9;I/Br+BfzJ2r4x1DDlBuRxkJjtVFv7DcOeb6FB+Y3ks0fAL0HmvAD4mhUdYug0MUZURBFcUOUxX3x&#xA;&#x9;&#x9;&#x9;&#x9;&#x9;&#x9;&#x9;&#x9;SHRtiwPx9AZt4TPfcyo/AbLJTTZzdu4su5CH1fzNPHtt1oe5WS/O5nrxdDaHJ7MTeCobxQwhG09g&#xA;&#x9;&#x9;&#x9;&#x9;&#x9;&#x9;&#x9;&#x9;UovipDaJU1oIp7V+TGs5TBF0ghaPYnT8PI7HYxiP5TEWH8D7sUexg1jrzl1lbSij0pZXWXO/oLa+&#xA;&#x9;&#x9;&#x9;&#x9;&#x9;&#x9;&#x9;&#x9;F11rDlld82fw3crlCpV1UKk8tfhPtyuOQbWiZPDDRQ8W3iq8x+Tr+58w/WNvn6pf9wZU/SMfSdd8&#xA;&#x9;&#x9;&#x9;&#x9;&#x9;&#x9;&#x9;&#x9;AfVyycPlS3JJXpKX5RV+iS/x5chSsVRcXL66Ulr5YGVR1t93uFX5Ir/I9HccTlV+G4JfQfBL0O4+&#xA;&#x9;&#x9;&#x9;&#x9;&#x9;&#x9;&#x9;&#x9;ucuCd/Q7TJoHad49z/RzN84x+Q0YVbpxRBnCYSWBYcWDR5Ve5MoAhoLTGFSS+LX/VfQHTmHAn0S/&#xA;&#x9;&#x9;&#x9;&#x9;&#x9;&#x9;&#x9;&#x9;0vobTAI9VG6P4sduQkEBXUlNq/LhMJcOgWvX4M4dg3dtG9xB6KwZHLcM3lE1ONs0OFgGl9YNvrsT&#xA;&#x9;&#x9;&#x9;&#x9;&#x9;&#x9;&#x9;&#x9;5tv1MN/SzVqIb1ZDfN0K8Z3dL1z17c9dta3bzurmLae1vuF014o1pleLVSZbmjVjLVgoWxESL5BY&#xA;&#x9;&#x9;&#x9;&#x9;&#x9;&#x9;&#x9;&#x9;t+5ZtvVMl2MCnS7WiayDMVo6z3TSRLWh3GNIRj5d9tC0NmbTn3qjw0b5fC5dunKlv3zNyL3+PwAA&#xA;&#x9;&#x9;&#x9;&#x9;&#x9;&#x9;&#x9;&#x9;AP//2tAgG7mDA6gmYgPjBsa+yA0c3sFQJgO4EiguKS7GNkK9gdl1A5trRuIGNmWXYhCHD8ThU3YB&#xA;&#x9;&#x9;&#x9;&#x9;&#x9;&#x9;&#x9;&#x9;Mjbwg9j8yi7ajBtEXDM2iABZGIYUw4B2MVQSYhGYYCjFZifILSVAEsSOA6krjoNwGOOKGbCoL8Gw&#xA;&#x9;&#x9;&#x9;&#x9;&#x9;&#x9;&#x9;&#x9;URuqW1tCGwAAAP//AwCzczb9DWVuZHN0cmVhbQ1lbmRvYmoNMjYgMCBvYmoNPDwvRGVjb2RlUGFy&#xA;&#x9;&#x9;&#x9;&#x9;&#x9;&#x9;&#x9;&#x9;bXNbIG51bGxdL0ZpbHRlclsvRmxhdGVEZWNvZGVdL0xlbmd0aCAzMD4+c3RyZWFtCnjaYmBgYGhg&#xA;&#x9;&#x9;&#x9;&#x9;&#x9;&#x9;&#x9;&#x9;ZFCIyTzDUH9+nwMAAAD//wMAF+cEfw1lbmRzdHJlYW0NZW5kb2JqDTI1IDAgb2JqDTw8L0RlY29k&#xA;&#x9;&#x9;&#x9;&#x9;&#x9;&#x9;&#x9;&#x9;ZVBhcm1zWyBudWxsXS9GaWx0ZXJbL0ZsYXRlRGVjb2RlXS9MZW5ndGggOTA+PnN0cmVhbQp42qSN&#xA;&#x9;&#x9;&#x9;&#x9;&#x9;&#x9;&#x9;&#x9;RwqAUBBDn7333tv97+hncCOoGwMTXpLFwE9pn6v+2Bq3ZKqzsHGu7OIp94UDQiKhmOTlR0pGTkFJ&#xA;&#x9;&#x9;&#x9;&#x9;&#x9;&#x9;&#x9;&#x9;RU1DK21Hz8DIpHhmYWVjl+U4AQAA//8DAFriAncNZW5kc3RyZWFtDWVuZG9iag0yNCAwIG9iag08&#xA;&#x9;&#x9;&#x9;&#x9;&#x9;&#x9;&#x9;&#x9;PC9EZWNvZGVQYXJtc1sgbnVsbF0vRmlsdGVyWy9GbGF0ZURlY29kZV0vTGVuZ3RoIDc0NDYvTGVu&#xA;&#x9;&#x9;&#x9;&#x9;&#x9;&#x9;&#x9;&#x9;Z3RoMSAxMDEwOT4+c3RyZWFtCnjarJJNSFRRFMf/5775clJLHXVs1Bl1zPzsy6yEYshFFloLtWak&#xA;&#x9;&#x9;&#x9;&#x9;&#x9;&#x9;&#x9;&#x9;kmFmHAMnB9FxWhSCoFhBLVpFkS0scBFKqyRs26LNYIssBI0SrSyhsY16X6enQgs3fZzLPe/+Lv9z&#xA;&#x9;&#x9;&#x9;&#x9;&#x9;&#x9;&#x9;&#x9;H5zz7+rsDiABvVDg8kW6HLaBm0cB3AMUS2s4GJp6773K51HA8CPYfqW15Vv1WcD8CMjwtwW8fvdi&#xA;&#x9;&#x9;&#x9;&#x9;&#x9;&#x9;&#x9;&#x9;JA3IM3NNVRtf9MhEE7OL2dkW6ooKy5kRZj/z7fYOn7fp/McLzHHmUyFvNHzZKBQg/xizI9wZCDc8&#xA;&#x9;&#x9;&#x9;&#x9;&#x9;&#x9;&#x9;&#x9;qJtmvgjo7QYL+F19DPbN/HvofCj49VVntTy9eZZ+dRn/KUwb+0+CYqL4X/9Lt6ifeqmReihE3XSJ&#xA;&#x9;&#x9;&#x9;&#x9;&#x9;&#x9;&#x9;&#x9;XOQjD+c+pg480UTDWCAHZVEyERVQChmxQoWUQ2mkg5n5C2vimvK+luNUje9C6xZu8H6B1/iARUhK&#xA;&#x9;&#x9;&#x9;&#x9;&#x9;&#x9;&#x9;&#x9;xgSvIK8RPIQbbsqlIjpCtfjKr2ez9i7G8Iw1L7nmHeawRCZqpghdpzsiSZwQzayzUg0NinqxonPC&#xA;&#x9;&#x9;&#x9;&#x9;&#x9;&#x9;&#x9;&#x9;SD0ilYLKOMXJQOnkxDhe4S37yEpDmFHKxVNEUYdJqiSXMqyUKHYRE8Nbd0PzgV9zwGN9TL+0hQ+G&#xA;&#x9;&#x9;&#x9;&#x9;&#x9;&#x9;&#x9;&#x9;tvKB9Kz7ZjWgzstPcoSVdtkvz/29F9ZDXeCXMjEkW6RHrskoBjCw2qe+kc/XylauqRWqjSdYQNk8&#xA;&#x9;&#x9;&#x9;&#x9;&#x9;&#x9;&#x9;&#x9;Ax1WeQazmOTeQZtWCpkgsYAJbVIJUDHFnY2wfp2W8XlDv4QZzHFNIlOUBrm/JnXeddzT1Nhwur7u&#xA;&#x9;&#x9;&#x9;&#x9;&#x9;&#x9;&#x9;&#x9;ZO3hQ1UHKw/s37d3T0V5WWlJ8e6iXYXOgvw8hz03J9u2M8uamZFuSUtN2bE9OSlxmznBZDTodYog&#xA;&#x9;&#x9;&#x9;&#x9;&#x9;&#x9;&#x9;&#x9;lNGotcY9lmUsteX9BAAA//+EUs9r2zAUlpOuG8kGblJGNm9DRuSUhF5ND1uoLZUSNtKQgT12kFMH&#xA;&#x9;&#x9;&#x9;&#x9;&#x9;&#x9;&#x9;&#x9;HJ963qm3gpI/Yn/C8y3slD9m7LTBGPScPclOmobBwJa+7/3S06fnulGv5C8fcqi27T8ukMauMXf2&#xA;&#x9;&#x9;&#x9;&#x9;&#x9;&#x9;&#x9;&#x9;kl7t8dd7/M2WfwByDIL5gS6cE/EDSBOsYyD6FKv5Hk8qk3iSMT6DF34iJWYEzKYgfp+UrZjaeb3m&#xA;&#x9;&#x9;&#x9;&#x9;&#x9;&#x9;&#x9;&#x9;M39a63VJXqsjrCPC2OvcEm8tAyqCn+YV8uRZrwuNDlTaXP8Z9OcSAQuwEnqa957lerXYdRFM26Bm&#xA;&#x9;&#x9;&#x9;&#x9;&#x9;&#x9;&#x9;&#x9;gSw49OGxOZfOoB8DmdO8u1KLpU0msvM0YUn8GZWLscecVNs8HWsduf5lSuEAi5vFQQvlKVVMy8FT&#xA;&#x9;&#x9;&#x9;&#x9;&#x9;&#x9;&#x9;&#x9;iSsLMOufdjQ/98Nbd+VAA3cORx04x4jzL9+dquKtGdVUqVsKXy/DXa+r1yiKWtiw4gwLYjGeneFV&#xA;&#x9;&#x9;&#x9;&#x9;&#x9;&#x9;&#x9;&#x9;Wie9bnGnUoBEZvrMLNZ98oyq+dT0ujA9mFCe4sPE/4tSiieMJ3FyVlT3oT82Gxl/Cs0FUbogKk1l&#xA;&#x9;&#x9;&#x9;&#x9;&#x9;&#x9;&#x9;&#x9;AHoOjEcGkVuIPRiFvm6MxYFTPPvWIksLGvjGSXUHF1gA6BUFMgoZhnp6mXpEXXlmeNzIwqzhfRY8&#xA;&#x9;&#x9;&#x9;&#x9;&#x9;&#x9;&#x9;&#x9;atuMqjsClmS/fj60xKXlsG3fEQ0FE1IpwahQUsXL9c2EUZupfDBQ11ziqcMQs5brb3MHxCICW6bW&#xA;&#x9;&#x9;&#x9;&#x9;&#x9;&#x9;&#x9;&#x9;KWqvJ0CMwneOexRt6HBDCY4UDlbdXAdVwO+i3FBlMg5dikJ9DCMHdQo1HiMudj1IOLgevnEpm9Zo&#xA;&#x9;&#x9;&#x9;&#x9;&#x9;&#x9;&#x9;&#x9;6m3l8Uvouno658s+mSCBm8vQ8L8AAAD//3xWTWgTQRR+b3Zn9odoNv2zuKgbokVYdFsEa6XQobWg&#xA;&#x9;&#x9;&#x9;&#x9;&#x9;&#x9;&#x9;&#x9;5GB/UrppKcRWIRdBLx78I/bSNFfP3j3JbiuYioeCQvEQ6LWCeBJPvYuV6pvdJurFTfbtvO+92Tez&#xA;&#x9;&#x9;&#x9;&#x9;&#x9;&#x9;&#x9;&#x9;8+bN1/Rg2d0AGfi0HhVl2W5beueUpda2dLpXChTlNSBVwt7IHOj8s05f92T1aoR9/zHfSe1R90So&#xA;&#x9;&#x9;&#x9;&#x9;&#x9;&#x9;&#x9;&#x9;uayctpirqZbt004fjU741D7vN2gRdguR40c83HZHy56TowqgVm+2UJxeCL3JRicLUuRopioPKNUL&#xA;&#x9;&#x9;&#x9;&#x9;&#x9;&#x9;&#x9;&#x9;t6qNo62kkv5fnwjyxVJHYRO0Ta/77eqS6jfahYvUqfDv7h2/LihisURZTnVmPC5gfTqWWJ9dCLcc&#xA;&#x9;&#x9;&#x9;&#x9;&#x9;&#x9;&#x9;&#x9;ojP1UrjBkE1UxsvxWbKFWx6ATFCmUAUqxVOKetMMKWbi724RgaolVj0BEn2liZBgZhtDWGmyFHPS&#xA;&#x9;&#x9;&#x9;&#x9;&#x9;&#x9;&#x9;&#x9;QANJIAmMLHpqkW1vnTAzxWoJllwxqOlKm0tTWjJDx7kbo4I2CHlLy2ghbGbwGLox9ZpJ4CbWYku6&#xA;&#x9;&#x9;&#x9;&#x9;&#x9;&#x9;&#x9;&#x9;qUeNPGQ6wvrcn9BzC+FmBqhbIinQuLqo+vRX6VOGBW/Sux3JqfBxudqolFWNW1UfPkIlF8N8wYm8&#xA;&#x9;&#x9;&#x9;&#x9;&#x9;&#x9;&#x9;&#x9;kx/dhvO1fAGYSicDBFFRevS8EUwHdQetz61EDA3mc/ncORJIXj9qHA7UE6hBBy88Onyn7xCP0OCy&#xA;&#x9;&#x9;&#x9;&#x9;&#x9;&#x9;&#x9;&#x9;zGqA+J5pPYxpDIA16VQ9bjnD0K8EAciCpUuB78NYMDS4xi/6a08+IOZR3/n57bCl9Yme7y+NkOZJ&#xA;&#x9;&#x9;&#x9;&#x9;&#x9;&#x9;&#x9;&#x9;LIPNExdQYzols7jHuNjjhoDdm8TJgqX9kREI9sf2hwZRjY5+bP6wgQ/UzT7h+sELXKdXQD9xnNPE&#xA;&#x9;&#x9;&#x9;&#x9;&#x9;&#x9;&#x9;&#x9;VAziOa/kjGCWZZsMnxFg2Zq+yrkYFleMorhmLIqScVcsG0/FfcMGygTt+T0bbbAt1Ol8fyhQaByZ&#xA;&#x9;&#x9;&#x9;&#x9;&#x9;&#x9;&#x9;&#x9;pgvDtGyL28A5g+avL7LLdoZ5ngRkMwiZMxnkwVLuNwAAAP//NFdNaBtHFJ6f3dFKsuyV1tIqjhUp&#xA;&#x9;&#x9;&#x9;&#x9;&#x9;&#x9;&#x9;&#x9;WiHXltWVdy3JqaxocXGKDsY1iduq7SaWi6MkrRuVNIUmFdKhTQn0UNnQhNBLLj00l/zUkVtCcHoI&#xA;&#x9;&#x9;&#x9;&#x9;&#x9;&#x9;&#x9;&#x9;hECoKIEeW3wILbgELEzB2lVnFWeHfQOzy3zvvfm+NzOqTgPVPSJ1NGd1XactPthnwAxbARWW0QtQ&#xA;&#x9;&#x9;&#x9;&#x9;&#x9;&#x9;&#x9;&#x9;/5o3NjY2upbboJ9/ytln7AjotOZg2uBBJyIHzHMl44+SWUFR+Eus0YBx83e22V5GPuMfaw1KnU32&#xA;&#x9;&#x9;&#x9;&#x9;&#x9;&#x9;&#x9;&#x9;Y/ZfoIJLP4NY58s7Lj7tXX/Ru9c7v2rz9p60fJgaLuAPSDjKDHOyXQ5IUgEVmLcdhcG3IufxBXuf&#xA;&#x9;&#x9;&#x9;&#x9;&#x9;&#x9;&#x9;&#x9;LOSEs0JVYARhoN7DhOKJ+EK8HGfi8WgdCEJ8PQmSs8kTSRyqkMY439rS+R0F5LZUWe+asYQei8FY&#xA;&#x9;&#x9;&#x9;&#x9;&#x9;&#x9;&#x9;&#x9;jA1HhqIoOe5JpyKq4hN9PtEtRaND0agUJjZCvP3WmKqk0qlUWnUTawyf+MF8trR09sxSEQZ/PH5F&#xA;&#x9;&#x9;&#x9;&#x9;&#x9;&#x9;&#x9;&#x9;e315eHRwPpWu5edWDmfys5PZ7/JHLr82dmz/KxMnJ/K1wGKxCMP3b8FQ6YOPvG5B7jev+KdCoVE1&#xA;&#x9;&#x9;&#x9;&#x9;&#x9;&#x9;&#x9;&#x9;c+jepW/updLySCQw5Te/3zfKe32UDfSkSLKUDb0gACa1kYJnfv8SOuP6DH3uIr4VDosrtr6KA1yg&#xA;&#x9;&#x9;&#x9;&#x9;&#x9;&#x9;&#x9;&#x9;v64Hg0Et+GYQi1Xb2gF+h0ba0rf2OKfDfmQjjERppzCiz8OOd0OT3C8iItn79WWzfdvYRoN3Iffu&#xA;&#x9;&#x9;&#x9;&#x9;&#x9;&#x9;&#x9;&#x9;tVvmuQ8/zVz8oli8XMueXkTPfjMb70yNs83sxHHzwdPVZibgbb+/7+DkI2s1qZfMNvXSCd7QBuz1&#xA;&#x9;&#x9;&#x9;&#x9;&#x9;&#x9;&#x9;&#x9;BNHIAimTGrlJ6APZOsKOOuTo3qT18d40x9Dzs4vYq3Cth98xFLcqq1RjXVc9FuuogPc0YjVme/cx&#xA;&#x9;&#x9;&#x9;&#x9;&#x9;&#x9;&#x9;&#x9;kzTy6CvjImqwTfNPs0Pfb7tapkVgs4t8SAvbmVWCHXgVcs7rjipm0XWAIcaunqAr4dJcZReju635&#xA;&#x9;&#x9;&#x9;&#x9;&#x9;&#x9;&#x9;&#x9;WwpvtBQgG0rOULpYqluiSDQbeLN9tdXCp1otyOEHkDP/a+csnJHO3/ghxfEDRRssIOhdFbHD0btC&#xA;&#x9;&#x9;&#x9;&#x9;&#x9;&#x9;&#x9;&#x9;BFF0eKs1a4sbqFLxWTKiEVAYQCeX93JvsUUKR4fc6ksOJa3I8MMj0/knV0t3pyOJU3OnP/GLxLyB&#xA;&#x9;&#x9;&#x9;&#x9;&#x9;&#x9;&#x9;&#x9;nsK1xRuZ3HRfL3zVE5xQxs6/h+agZy/Pz6kXLJC0fqrrOkVdAGVac4CNodkkdNUteCuTL3PIPN99&#xA;&#x9;&#x9;&#x9;&#x9;&#x9;&#x9;&#x9;&#x9;AmvoNtvcnbXqS6nzFzlJ701OelM6qoWG2GHbsLMMy2zV9j8AAAD//3SX70sTcRzHv9997zwvG7vz&#xA;&#x9;&#x9;&#x9;&#x9;&#x9;&#x9;&#x9;&#x9;dN50sC2d7ppj7tzmdNbOsEwNfBCoU0QoWYpQYlmJjLP5I0goO3qgFYT4QHqWQagZ9CD6A3rig3oQ&#xA;&#x9;&#x9;&#x9;&#x9;&#x9;&#x9;&#x9;&#x9;hQ96kFQQFZhf+363CSXGYOPg+O6+n9fr/f5yeh5XaPAaL/N54AzPuAykIVqIEr1GkiUJVt0xNywh&#xA;&#x9;&#x9;&#x9;&#x9;&#x9;&#x9;&#x9;&#x9;SSpL+/VjC8S8oFgWtrI/dLMCcDmBmP6GZJ/BAzKUk8D9eA7P4344By/ABLyPUSR8XK2eOt18I6zG&#xA;&#x9;&#x9;&#x9;&#x9;&#x9;&#x9;&#x9;&#x9;jqnqdEvLtOkTfoh74CLsIzct4N4dZ+NacvpFXX04WB95nZpaj0YjtSCTEnaGzEUgb4VNmu2skLCM&#xA;&#x9;&#x9;&#x9;&#x9;&#x9;&#x9;&#x9;&#x9;MMhmcBwvG4cQLybrQAuNCBFQJJ0CgMvh0lwmG6fzz5zC9x2VUvPStKQN/Asa9cKV7oN9kWFnTjXE&#xA;&#x9;&#x9;&#x9;&#x9;&#x9;&#x9;&#x9;&#x9;3y1+weOm67dftXb14suNvvrh3hMXz+letwtt971s6OzCJeybQCC6eivWnS+z+IRc5oynKeCONIUi&#xA;&#x9;&#x9;&#x9;&#x9;&#x9;&#x9;&#x9;&#x9;EASjmlfxKQF39RXvmG8sMBLkHI6Se22lsNQuK7zh1/xpIH6m0FA0hQJx0mtFksfbFKg4jypBJ1OJ&#xA;&#x9;&#x9;&#x9;&#x9;&#x9;&#x9;&#x9;&#x9;kupqOBaGlmTlSihLh3Y4kXEfpPzaWM+W6qd7/A8fKWMprTlqLanBsixRUTAxAweg6mb6RpUha3lk&#xA;&#x9;&#x9;&#x9;&#x9;&#x9;&#x9;&#x9;&#x9;4ua15WhdHYuf4pk9uF/hpQPA4ffn2+15+Je5IBoOzXZKcB52ZDgTMX5infiuEK6t6bOwUiuGzN0c&#xA;&#x9;&#x9;&#x9;&#x9;&#x9;&#x9;&#x9;&#x9;hEA31NlunYEMw+cKRFadR5lUb+5sEnw00HsHLNuK/Xgc+9kjzPJ2G0Nql6z5ePcDu0HWFEFEc4sc&#xA;&#x9;&#x9;&#x9;&#x9;&#x9;&#x9;&#x9;&#x9;OmyE0Ek0ghCSBH1cnBVNoihpEszVAXeHe8QhjkwwE2pA5harJutnRkH+ooDOiUSZ3cBP8Br5LMNU&#xA;&#x9;&#x9;&#x9;&#x9;&#x9;&#x9;&#x9;&#x9;ypidgilTCf6M38JyKKGV370P5owFtEC4t+9+ZFaYCWABVSChNVlkttImN7PN9jgbtw+yA5ZB+1X3&#xA;&#x9;&#x9;&#x9;&#x9;&#x9;&#x9;&#x9;&#x9;sDLkM8NvDofXWqGZLTUVFaVLXsG8ZLVWOWDVpP+56lehxePwmDwebtK2HiCoyfP10C5VqcK0ebzi&#xA;&#x9;&#x9;&#x9;&#x9;&#x9;&#x9;&#x9;&#x9;nsihnH/gFuVk2ygUJB6X1RADKP5SMfwHAAD//0yWXUxTdxjGz3t6Tj2t5XzUc04ppV/0AK1t0pYj&#xA;&#x9;&#x9;&#x9;&#x9;&#x9;&#x9;&#x9;&#x9;VaJpD1pUpGQLlW1CcMxNo+hQELPsI2PSxiyLw2Wb0OCIC4nBmLhky5LJcDdeLIsZlzNmZKiJ2YVm&#xA;&#x9;&#x9;&#x9;&#x9;&#x9;&#x9;&#x9;&#x9;LIuJN4M/e087Irf/q/f5P8/7vD9NDzAKtlJX+41YqsVR7TKyqdNbva80NA9nv74/ePQtCF8tfXno&#xA;&#x9;&#x9;&#x9;&#x9;&#x9;&#x9;&#x9;&#x9;bizYAnAedJDIFah/YlV4qbU5FJPlLbFP1LSz2vXz1Ptf4QG2Wfv2ZSQQhMhPd1cZVH9j7QmbRvIS&#xA;&#x9;&#x9;&#x9;&#x9;&#x9;&#x9;&#x9;&#x9;8ZrtMLQ2aPO+KhwTRtlRt1We4EUb5SlZVE4qULf9VtfmIjfnK2vCs12Wlfm/YMxQbjItTqX0JidU&#xA;&#x9;&#x9;&#x9;&#x9;&#x9;&#x9;&#x9;&#x9;BEhldWyaLC4eHjcEMgvH8zeHfvuTfHqsoJ9KNu5NXrpIt2Kyvgs37LDKq7/v7iIL5OnEjN+7+itv&#xA;&#x9;&#x9;&#x9;&#x9;&#x9;&#x9;&#x9;&#x9;v47ZeA3dGWLGqEbqYyOUsGRsO91Jj2FpY3JczpZzZz0d/l7/Sf8HAb4h4BC3y7fW7pnAwt9ae2go&#xA;&#x9;&#x9;&#x9;&#x9;&#x9;&#x9;&#x9;&#x9;+CAaSI0JEUTRNekQMxpoZuP48VHTvJOUKlKaqI1qFi0eAS3SH4GagnU+bEKJhOzVp5e5JFoBk2gy&#xA;&#x9;&#x9;&#x9;&#x9;&#x9;&#x9;&#x9;&#x9;EUUaY8v7V7YqZXLJCyhR5I04Qj/74lnPoSMnDvcuf3T2zkFd2RmNHGn97MrVz7Nva3XbVL17zre3&#xA;&#x9;&#x9;&#x9;&#x9;&#x9;&#x9;&#x9;&#x9;vX3p8vTjjn27m8JkwZlwqd4fpmeu+xU5ppCFcBwd6ll7xCyjQ1uoAJU2wgfsB2qGREtgK6q0BDCK&#xA;&#x9;&#x9;&#x9;&#x9;&#x9;&#x9;&#x9;&#x9;Tqp6khfBN8GqkkwXqR/rPAVuPogSKuHL/GX6ZI7eFww2mzGjpRezB0HaMDqzTEp9MwMLz/P7s3fe&#xA;&#x9;&#x9;&#x9;&#x9;&#x9;&#x9;&#x9;&#x9;OHo+C3gUGg6GxseHP0wOnsvth13guPTHSx35aBCW/q2jG0X+2+lrl+txTtOpFeYCpVC11KCR1+io&#xA;&#x9;&#x9;&#x9;&#x9;&#x9;&#x9;&#x9;&#x9;Xad32ffQnWynfQ+fE3vYXnu354T1pK1f7neN0O/aRvgRWYZ/amsd7lmnSHEil+fe5M5yLMcxJYdq&#xA;&#x9;&#x9;&#x9;&#x9;&#x9;&#x9;&#x9;&#x9;s6lF6rYv7oNaKArzXlMPEhRasU6L6/sU3NCO65dOqq+UKLOy8gs39/3wvXT4vfsF8g0pQTdEwAky&#xA;&#x9;&#x9;&#x9;&#x9;&#x9;&#x9;&#x9;&#x9;mbIMnDl+gYO/ixe74uRBMgYJcIMKbeQpWekeGj71DiYwijwzZvUhZxiGhte+pMBmjp+VhCq7HQlD&#xA;&#x9;&#x9;&#x9;&#x9;&#x9;&#x9;&#x9;&#x9;qPHX0JzASY6i8HrV6Sq6ClODkB4vYwcyB/5+S4u5/thSocpfK0HFXJVQs44pMm2wjHmqO2MDHaCS&#xA;&#x9;&#x9;&#x9;&#x9;&#x9;&#x9;&#x9;&#x9;56Q0NbW49PJYE+vY5PwPAAD///LJ5fzyZyJz/hf5c+e4OUGp4V8kyztgflADttNDHSz8xPx0/Yxj&#xA;&#x9;&#x9;&#x9;&#x9;&#x9;&#x9;&#x9;&#x9;xWKNM8WyjGs5qnhKlauMuUVVJLSnKwqo8RtOkwC2iaazyXBySquoiwJTh6les/RuE2DxBKpjjWCN&#xA;&#x9;&#x9;&#x9;&#x9;&#x9;&#x9;&#x9;&#x9;In1QThaytAQGpiq2phE43TAg0o05erqJCgx8OqH0cbCO0z7vlFpFeRnHeYlv/jP4uTsdTI2easvL&#xA;&#x9;&#x9;&#x9;&#x9;&#x9;&#x9;&#x9;&#x9;GPtvhnyUSl9fZblZRuO8G7Z25jIijJJS2qpKCiluoqZ2wDhW6j7l7eanrWb05z/jX17+xZMWNSiB&#xA;&#x9;&#x9;&#x9;&#x9;&#x9;&#x9;&#x9;&#x9;WnqrgHWOEDAHiAFLKGVGUWFRG8ECURZGAV6OqcICfMDeK9BbEgYSCRJMAtwtvDvFIenkG6iAgnkK&#xA;&#x9;&#x9;&#x9;&#x9;&#x9;&#x9;&#x9;&#x9;2PCC16qCsGJKTJRV6N80PkERX1fDVGtgushI2Jiz7SyTrku7AtBZyn+eAMuky94BVy6D2gcLgIQM&#xA;&#x9;&#x9;&#x9;&#x9;&#x9;&#x9;&#x9;&#x9;uI/KzmDooMg6j4FNgE2BjZmNgYmfkWUuQwvrXAZGAUYmxgDOBM4CYBUIq//sYa1nc1APUwhkD9e/&#xA;&#x9;&#x9;&#x9;&#x9;&#x9;&#x9;&#x9;&#x9;FsYaluQFjIJQ/zEJgU2WdRBiAgq0QA1iTWAtYAUZBPIKxAyIfqBiiD72a8C0oMEQ5+DIIsYsIyqj&#xA;&#x9;&#x9;&#x9;&#x9;&#x9;&#x9;&#x9;&#x9;IbFcbJn0drFt0hxqU6UEBMXlmVj4OKeKCPDz88m1yK8SZ2xhEuRt4VvFwCTABARamgxaBloBWgVa&#xA;&#x9;&#x9;&#x9;&#x9;&#x9;&#x9;&#x9;&#x9;sIb4XyOBt5ZfoGEnbgkp3wXRgk8UkgoggYgkyfLl3zQOISFPJ9MUDZA7Y1el568yyDmTtG3vv2ns&#xA;&#x9;&#x9;&#x9;&#x9;&#x9;&#x9;&#x9;&#x9;QoJezrphzDJ/njAZBhWrqChqS/x5wpJc4xmUnBCdcevsX1Umw+AioLg8PNaBvsMe6/zkxLoocbEO&#xA;&#x9;&#x9;&#x9;&#x9;&#x9;&#x9;&#x9;&#x9;dBI40kFl2l1WNWCZBmqZKzoIic7gFFAEVof8wNpQVRpYUaiA8xGwFQIZRSCinc2q9m/vvztAuJfR&#xA;&#x9;&#x9;&#x9;&#x9;&#x9;&#x9;&#x9;&#x9;lVEJ2Bhx/OeqrKyioBBlYhKoqqiupKgQaWkYyWQILIIOMtoDAAAA//9kmFtIFFEYx+ecmdm5rTuz&#xA;&#x9;&#x9;&#x9;&#x9;&#x9;&#x9;&#x9;&#x9;zq5re1FndXHWNVfcaiVDV1qzxDtJgt3ATU2DtovpWiipqBH5pFZPUVhLPpQPUdhLPhZlkFFJvQpR&#xA;&#x9;&#x9;&#x9;&#x9;&#x9;&#x9;&#x9;&#x9;5EPg646dM7NWFAsDCzPMN+d85//7/z9gBw5QqS2nPgcSfZ0Tqt/rLiqc6j466S8sUHBXLmgxuhKt&#xA;&#x9;&#x9;&#x9;&#x9;&#x9;&#x9;&#x9;&#x9;EqZDVSQQhVExmtcqtsqnxJicYEfcnGPOKpnFnJumLMFlQ4V7LS5u3LykGBjHeeE3xv+c/O3F+pfk&#xA;&#x9;&#x9;&#x9;&#x9;&#x9;&#x9;&#x9;&#x9;bTUHn/acnDiAlw2hfPWbdiOeQCgvaFUxyq+v1zU2+31aMb3Vj1j+RvsxP4NY/trCJo0dJdeobiKT&#xA;&#x9;&#x9;&#x9;&#x9;&#x9;&#x9;&#x9;&#x9;KH8GzHEzRGqKaezgpTA1K4qCyKEUagvagJkZ55ZkfUetWO2rqlIBwx7n/9eE5Fqeo8vbcCmKaxpY&#xA;&#x9;&#x9;&#x9;&#x9;&#x9;&#x9;&#x9;&#x9;rJNLM0kzy9qyUxLVeb9rP4S4m04gig6hdSolRiNSWfBQdm2wHySEhKs/n8nFZkGxSGE6D10qrOhU&#xA;&#x9;&#x9;&#x9;&#x9;&#x9;&#x9;&#x9;&#x9;OlXKQzYrQMH2QVF8SY/E4FJl9JdhLEkyS1HHnNYxxcnoEYbnLCjClMXLAKPrfgA14EZwwwBVwPAQ&#xA;&#x9;&#x9;&#x9;&#x9;&#x9;&#x9;&#x9;&#x9;VnScjukcBjZKSeur0RVGq+iuokBJWwpDXB36LdSQ9lL7ObdZp7hqq8unW3q79h1Wr5XfnkGOjx/+&#xA;&#x9;&#x9;&#x9;&#x9;&#x9;&#x9;&#x9;&#x9;Wp3bvHL6yMCeWHgkMj0FYo8+lHuBKu90OpRgid9n5eyi+nD43qeQR1sP15QWq0V2wS757mC6bX0n&#xA;&#x9;&#x9;&#x9;&#x9;&#x9;&#x9;&#x9;&#x9;B+l5wkXURYp52kVDUYgLUJAymKTAiy6XA32rBY8yCY/oAWyGNM6zZxn8maEQAoduw0NGsNaxh8c3&#xA;&#x9;&#x9;&#x9;&#x9;&#x9;&#x9;&#x9;&#x9;PsPMYsDpG4VdeXpUEyIH944eX12ZmQE9oEV7DEVLbdTdkZnDi9aFtzBjEx2IF5va+Yr2/Hx/No/e&#xA;&#x9;&#x9;&#x9;&#x9;&#x9;&#x9;&#x9;&#x9;exelA47qRDpQGfHzJqepXu6Qz8gjzJDMQDvNidZZOgvozseQA2xSHUbcShnee1sNdqfr+qseFBQ4&#xA;&#x9;&#x9;&#x9;&#x9;&#x9;&#x9;&#x9;&#x9;7VbswYXnr0CvYJMbakriu0DPlfqmj+/gl9T7tnM+n9erkG5USQ5SJDuqxERcXSLoreUnFolopHHz&#xA;&#x9;&#x9;&#x9;&#x9;&#x9;&#x9;&#x9;&#x9;qFwG0bhII+uwA9bS7TSFfqZJ9AhNTZCQjIE+eBFchpQ+6VM4MUziC0FDUoRDRD+ec7JBtomFBCmh&#xA;&#x9;&#x9;&#x9;&#x9;&#x9;&#x9;&#x9;&#x9;+1FwMGYGVb8AAAD//1yZQUgUURjHv+/NvDczu5LaJhqag7VCupVguBgEKRGEVpqVrsaqm5GlZrlq&#xA;&#x9;&#x9;&#x9;&#x9;&#x9;&#x9;&#x9;&#x9;2q7aJZIOQccgkgo9tOGhsUJj0z1m0NWTHbxG0KUizHb73uyDJJaZ337/eTPv+x7DvPe+z/Uc6ZWR&#xA;&#x9;&#x9;&#x9;&#x9;&#x9;&#x9;&#x9;&#x9;uT06zBSGIQyBgEx4liHygnQTbdxbcBJ1RL3n9xO9Z2tL06W39GUoJG8NeL4EoLwF6e1x6a3JG3hI&#xA;&#x9;&#x9;&#x9;&#x9;&#x9;&#x9;&#x9;&#x9;a+dXNE5NuOD6S1yiSWdaZl1njbcGM+4JLryawYu0ci3Aa7U+HmejWoyPCC+TgeyjGIQMhAGvEScE&#xA;&#x9;&#x9;&#x9;&#x9;&#x9;&#x9;&#x9;&#x9;E7lcL2bMqrKaLCanRyayocAxmb7cFks45Z7MlBuQCseHZWwOAaN/HqZjTroRY/iArW0izuoXwa1Y&#xA;&#x9;&#x9;&#x9;&#x9;&#x9;&#x9;&#x9;&#x9;8LNfV6taHnflHv0BxdmK7/zAuV//qsDpNmON1moIcq3kluppZL3plu3F+/8Kx36TJJakh9+FuFYL&#xA;&#x9;&#x9;&#x9;&#x9;&#x9;&#x9;&#x9;&#x9;GyIIRfwj9IpZWOZjsKx3Qlwfgkq+G5bFJ+jlnxVHoELcgRc8BK38EST0NxAidvBmCGkRCLj/FyBB&#xA;&#x9;&#x9;&#x9;&#x9;&#x9;&#x9;&#x9;&#x9;z35KR8Icg4S0+ZTbLqFt0j0r0KXNUdsFeMYPQymvkW8Z2PRrgEHYwFH8wDg7wibYjGZqEe27XqqH&#xA;&#x9;&#x9;&#x9;&#x9;&#x9;&#x9;&#x9;&#x9;9XV+gM8LFNfFa+OQMWTMGO/MCrPfTFo7rWZr3XPQE/WseqvdWP1Qo8aC0S6vDjroKzwoftJqA1+d&#xA;&#x9;&#x9;&#x9;&#x9;&#x9;&#x9;&#x9;&#x9;t5J4HyqxBC5gufMlY9cPYzlUo59sPyAaRJr5XO6lcwZs7FB6u+I0RmAX6W1wElvJbs3qpMgU3Dec&#xA;&#x9;&#x9;&#x9;&#x9;&#x9;&#x9;&#x9;&#x9;InuS2gRImcA4zVM2xsnOJ8aUfhvHoZw4TnYJcUzxFna6fQ5j1GWU9ALikOrzpuINxQF1vV/ZfYrX&#xA;&#x9;&#x9;&#x9;&#x9;&#x9;&#x9;&#x9;&#x9;FK8qXnYy+fZ77FHdX8KIU2DXLWL3gs8XlHRy8oL1O7Bb+dGl2JllJoUR2mUGYYVshBxsohh9FPsZ&#xA;&#x9;&#x9;&#x9;&#x9;&#x9;&#x9;&#x9;&#x9;Jy9jL+JpJzdjJ/EUjWwjqRVZdb9UF3GP45PwOrqEx9EkCqWYREuNqZm9aDh/AQAA//90mktME0EY&#xA;&#x9;&#x9;&#x9;&#x9;&#x9;&#x9;&#x9;&#x9;x3d2l1Kk7W5bWltq/bZSFLtqCSRG8cAG9aA90AAHKg3BhDtNikfdqkVBg4/6qtaDnsRemLaalMhD&#xA;&#x9;&#x9;&#x9;&#x9;&#x9;&#x9;&#x9;&#x9;vfkKakTjWRQhhPjAwK1+SwmSGCb7y/znm93vP5Pdnd3DrHRWZu1ap23VpKKYzlo00WGUx2hJlmhR&#xA;&#x9;&#x9;&#x9;&#x9;&#x9;&#x9;&#x9;&#x9;XilnCvB9xgsz38ygfZq6P+JclM/kU8IMb5DXyCvkJfICeYY8THnhLnInJcHtVA2kEi74mbTBg6QT&#xA;&#x9;&#x9;&#x9;&#x9;&#x9;&#x9;&#x9;&#x9;biV9cDNZDTdQK0mSxNOFX+R6wgnXEjJcTeDfWoJoRuFEubhXGIVR/yjnf0KYEXGEFfKEeUykZXWZ&#xA;&#x9;&#x9;&#x9;&#x9;&#x9;&#x9;&#x9;&#x9;FZekJWWJU/8QcVFaZKWF4ALrn2+cb57naqciU2wuWwPZnBn8ucZcF43QyIeSr9Ne+IL4pzWD3HOc&#xA;&#x9;&#x9;&#x9;&#x9;&#x9;&#x9;&#x9;&#x9;iGZUeITivboH3iFvVQkmVTM8RSaQy+OFcVYYI4Uxkhk2Q2SYiEPSEHtxoBYuDPhhQK2H/rgDziPn&#xA;&#x9;&#x9;&#x9;&#x9;&#x9;&#x9;&#x9;&#x9;4kegL26Gs/EGiGOanvS9NE3/SPPKfSKGpbAS5n5jxjOqA06rRyGG9Sl0PIkE1S41onKi4AG7zQel&#xA;&#x9;&#x9;&#x9;&#x9;&#x9;&#x9;&#x9;&#x9;Og84HT7gOQ9YLT7YtVvwyaaancL2HSZvtbCtyiR5hK1gcm1xGx3OSqPNvtlosVYYBdFsMBhNhrJN&#xA;&#x9;&#x9;&#x9;&#x9;&#x9;&#x9;&#x9;&#x9;5QZdqd7A8SUGhrAGUYgJrKKL6ViFi3GswDQyzYzK8AKDSymjuHuwMcFM4juhdx3Qg9CgB26/Hph9&#xA;&#x9;&#x9;&#x9;&#x9;&#x9;&#x9;&#x9;&#x9;egjWE2oJMIG2JmrFpy/Q2kTr5UBez7TQOjlAy4Id7RlCLoUwStl+vD1tlO/Ps1hZDh7raM8Tp9bd&#xA;&#x9;&#x9;&#x9;&#x9;&#x9;&#x9;&#x9;&#x9;t7KVAVWexPoGB11rKhSS3bQ70NpOI+4QrdPEFXcIV3BZjvZGo1F5g5Kxa+7dLU2ZWV7b6HCczlYd&#xA;&#x9;&#x9;&#x9;&#x9;&#x9;&#x9;&#x9;&#x9;orOH6Zym56oOkdVL1+dAiUnXWsVjXWHkEyvx3v/sNhpH54YDLNr9K45O+S8AAAD//wMAppTnTw1l&#xA;&#x9;&#x9;&#x9;&#x9;&#x9;&#x9;&#x9;&#x9;bmRzdHJlYW0NZW5kb2JqDTIzIDAgb2JqDTw8L0Jhc2VGb250L1RpbWVzTmV3Um9tYW4vRGVzY2Vu&#xA;&#x9;&#x9;&#x9;&#x9;&#x9;&#x9;&#x9;&#x9;ZGFudEZvbnRzWyAyMiAwIFJdL0VuY29kaW5nL0lkZW50aXR5LUgvTmFtZS9GNS9TdWJ0eXBlL1R5&#xA;&#x9;&#x9;&#x9;&#x9;&#x9;&#x9;&#x9;&#x9;cGUwL1RvVW5pY29kZSA0MCAwIFIvVHlwZS9Gb250Pj4NZW5kb2JqDTIyIDAgb2JqDTw8L0Jhc2VG&#xA;&#x9;&#x9;&#x9;&#x9;&#x9;&#x9;&#x9;&#x9;b250L1RpbWVzTmV3Um9tYW4vQ0lEU3lzdGVtSW5mbzw8L09yZGVyaW5nKElkZW50aXR5KS9SZWdp&#xA;&#x9;&#x9;&#x9;&#x9;&#x9;&#x9;&#x9;&#x9;c3RyeShBZG9iZSkvU3VwcGxlbWVudCAxPj4vQ0lEVG9HSURNYXAgMzQgMCBSL0ZvbnREZXNjcmlw&#xA;&#x9;&#x9;&#x9;&#x9;&#x9;&#x9;&#x9;&#x9;dG9yIDIxIDAgUi9TdWJ0eXBlL0NJREZvbnRUeXBlMi9UeXBlL0ZvbnQvVyA0NCAwIFI+Pg1lbmRv&#xA;&#x9;&#x9;&#x9;&#x9;&#x9;&#x9;&#x9;&#x9;YmoNMjEgMCBvYmoNPDwvQXNjZW50IDEwMzkuNTUxL0NJRFNldCAzNSAwIFIvQ2FwSGVpZ2h0IDAv&#xA;&#x9;&#x9;&#x9;&#x9;&#x9;&#x9;&#x9;&#x9;RGVzY2VudCAtMzA2LjY0MDYyNS9GbGFncyAzMi9Gb250QkJveFsgLTU2OC4zNTkzNzUgLTMwNi42&#xA;&#x9;&#x9;&#x9;&#x9;&#x9;&#x9;&#x9;&#x9;NDA2MjUgMjA0NS44OTggMTAzOS41NTFdL0ZvbnRGaWxlMiAzMyAwIFIvRm9udE5hbWUvVGltZXNO&#xA;&#x9;&#x9;&#x9;&#x9;&#x9;&#x9;&#x9;&#x9;ZXdSb21hbi9JdGFsaWNBbmdsZSAwL1N0ZW1WIDAvVHlwZS9Gb250RGVzY3JpcHRvcj4+DWVuZG9i&#xA;&#x9;&#x9;&#x9;&#x9;&#x9;&#x9;&#x9;&#x9;ag0yMCAwIG9iag08PC9TL1VSSS9VUkkod3d3Lmdyb3VwcHJhY3RpY2UuY2gpPj4NZW5kb2JqDTE5&#xA;&#x9;&#x9;&#x9;&#x9;&#x9;&#x9;&#x9;&#x9;IDAgb2JqDTw8L0EgMjAgMCBSL0JTPDwvUy9TL1R5cGUvQm9yZGVyL1cgMD4+L0YgNC9SZWN0WyAx&#xA;&#x9;&#x9;&#x9;&#x9;&#x9;&#x9;&#x9;&#x9;OTQuMDQgMTk0LjUyMDUgMjg4Ljg0IDE4Mi41MjA1XS9TdWJ0eXBlL0xpbmsvVHlwZS9Bbm5vdD4+&#xA;&#x9;&#x9;&#x9;&#x9;&#x9;&#x9;&#x9;&#x9;DWVuZG9iag0xOCAwIG9iag08PC9TL1VSSS9VUkkobWFpbHRvOnJlYWR5QGdydXBwZW5wcmF4aXMu&#xA;&#x9;&#x9;&#x9;&#x9;&#x9;&#x9;&#x9;&#x9;Y2gpPj4NZW5kb2JqDTE3IDAgb2JqDTw8L0EgMTggMCBSL0JTPDwvUy9TL1R5cGUvQm9yZGVyL1cg&#xA;&#x9;&#x9;&#x9;&#x9;&#x9;&#x9;&#x9;&#x9;MD4+L0YgNC9SZWN0WyAxOTIuNiAyMDQuNDgwNSAyOTkuNzYgMTkyLjQ4MDVdL1N1YnR5cGUvTGlu&#xA;&#x9;&#x9;&#x9;&#x9;&#x9;&#x9;&#x9;&#x9;ay9UeXBlL0Fubm90Pj4NZW5kb2JqDTE2IDAgb2JqDTw8L0Jhc2VGb250L1ZlcmRhbmEsSXRhbGlj&#xA;&#x9;&#x9;&#x9;&#x9;&#x9;&#x9;&#x9;&#x9;L0Rlc2NlbmRhbnRGb250c1sgMTUgMCBSXS9FbmNvZGluZy9JZGVudGl0eS1IL05hbWUvRjQvU3Vi&#xA;&#x9;&#x9;&#x9;&#x9;&#x9;&#x9;&#x9;&#x9;dHlwZS9UeXBlMC9Ub1VuaWNvZGUgNDAgMCBSL1R5cGUvRm9udD4+DWVuZG9iag0xNSAwIG9iag08&#xA;&#x9;&#x9;&#x9;&#x9;&#x9;&#x9;&#x9;&#x9;PC9CYXNlRm9udC9WZXJkYW5hLEl0YWxpYy9DSURTeXN0ZW1JbmZvPDwvT3JkZXJpbmcoSWRlbnRp&#xA;&#x9;&#x9;&#x9;&#x9;&#x9;&#x9;&#x9;&#x9;dHkpL1JlZ2lzdHJ5KEFkb2JlKS9TdXBwbGVtZW50IDE+Pi9DSURUb0dJRE1hcCAzMSAwIFIvRm9u&#xA;&#x9;&#x9;&#x9;&#x9;&#x9;&#x9;&#x9;&#x9;dERlc2NyaXB0b3IgMTQgMCBSL1N1YnR5cGUvQ0lERm9udFR5cGUyL1R5cGUvRm9udC9XIDQzIDAg&#xA;&#x9;&#x9;&#x9;&#x9;&#x9;&#x9;&#x9;&#x9;Uj4+DWVuZG9iag0xNCAwIG9iag08PC9Bc2NlbnQgMTA1MC43ODEvQ0lEU2V0IDMyIDAgUi9DYXBI&#xA;&#x9;&#x9;&#x9;&#x9;&#x9;&#x9;&#x9;&#x9;ZWlnaHQgMC9EZXNjZW50IC0zMDMuMjIyNjU2L0ZsYWdzIDMyL0ZvbnRCQm94WyAtNDUzLjEyNSAt&#xA;&#x9;&#x9;&#x9;&#x9;&#x9;&#x9;&#x9;&#x9;MzAzLjIyMjY1NiAxNTg0Ljk2MSAxMDUwLjc4MV0vRm9udEZpbGUyIDMwIDAgUi9Gb250TmFtZS9W&#xA;&#x9;&#x9;&#x9;&#x9;&#x9;&#x9;&#x9;&#x9;ZXJkYW5hLEl0YWxpYy9JdGFsaWNBbmdsZSAwL1N0ZW1WIDAvVHlwZS9Gb250RGVzY3JpcHRvcj4+&#xA;&#x9;&#x9;&#x9;&#x9;&#x9;&#x9;&#x9;&#x9;DWVuZG9iag0xMyAwIG9iag08PC9TL1VSSS9VUkkobWFpbHRvOmRvZUBzYW1wbGVkb21haW4uY2hJ&#xA;&#x9;&#x9;&#x9;&#x9;&#x9;&#x9;&#x9;&#x9;RCk+Pg1lbmRvYmoNMTIgMCBvYmoNPDwvQSAxMyAwIFIvQlM8PC9TL1MvVHlwZS9Cb3JkZXIvVyAw&#xA;&#x9;&#x9;&#x9;&#x9;&#x9;&#x9;&#x9;&#x9;Pj4vRiA0L1JlY3RbIDE3MC44OCA3MTQuNzIwNSAyODAuNjggNzAyLjcyMDVdL1N1YnR5cGUvTGlu&#xA;&#x9;&#x9;&#x9;&#x9;&#x9;&#x9;&#x9;&#x9;ay9UeXBlL0Fubm90Pj4NZW5kb2JqDTExIDAgb2JqDTw8L0Jhc2VGb250L1ZlcmRhbmEvRGVzY2Vu&#xA;&#x9;&#x9;&#x9;&#x9;&#x9;&#x9;&#x9;&#x9;ZGFudEZvbnRzWyAxMCAwIFJdL0VuY29kaW5nL0lkZW50aXR5LUgvTmFtZS9GMy9TdWJ0eXBlL1R5&#xA;&#x9;&#x9;&#x9;&#x9;&#x9;&#x9;&#x9;&#x9;cGUwL1RvVW5pY29kZSA0MCAwIFIvVHlwZS9Gb250Pj4NZW5kb2JqDTEwIDAgb2JqDTw8L0Jhc2VG&#xA;&#x9;&#x9;&#x9;&#x9;&#x9;&#x9;&#x9;&#x9;b250L1ZlcmRhbmEvQ0lEU3lzdGVtSW5mbzw8L09yZGVyaW5nKElkZW50aXR5KS9SZWdpc3RyeShB&#xA;&#x9;&#x9;&#x9;&#x9;&#x9;&#x9;&#x9;&#x9;ZG9iZSkvU3VwcGxlbWVudCAxPj4vQ0lEVG9HSURNYXAgMjggMCBSL0ZvbnREZXNjcmlwdG9yIDkg&#xA;&#x9;&#x9;&#x9;&#x9;&#x9;&#x9;&#x9;&#x9;MCBSL1N1YnR5cGUvQ0lERm9udFR5cGUyL1R5cGUvRm9udC9XIDQyIDAgUj4+DWVuZG9iag05IDAg&#xA;&#x9;&#x9;&#x9;&#x9;&#x9;&#x9;&#x9;&#x9;b2JqDTw8L0FzY2VudCAxMDUwLjc4MS9DSURTZXQgMjkgMCBSL0NhcEhlaWdodCAwL0Rlc2NlbnQg&#xA;&#x9;&#x9;&#x9;&#x9;&#x9;&#x9;&#x9;&#x9;LTMwMy4yMjI2NTYvRmxhZ3MgMzIvRm9udEJCb3hbIC01NTkuNTcwMzEzIC0zMDMuMjIyNjU2IDE1&#xA;&#x9;&#x9;&#x9;&#x9;&#x9;&#x9;&#x9;&#x9;MjIuOTQ5IDEwNTAuNzgxXS9Gb250RmlsZTIgMjcgMCBSL0ZvbnROYW1lL1ZlcmRhbmEvSXRhbGlj&#xA;&#x9;&#x9;&#x9;&#x9;&#x9;&#x9;&#x9;&#x9;QW5nbGUgMC9TdGVtViAwL1R5cGUvRm9udERlc2NyaXB0b3I+Pg1lbmRvYmoNOCAwIG9iag08PC9C&#xA;&#x9;&#x9;&#x9;&#x9;&#x9;&#x9;&#x9;&#x9;YXNlRm9udC9WZXJkYW5hLEJvbGQvRGVzY2VuZGFudEZvbnRzWyA3IDAgUl0vRW5jb2RpbmcvSWRl&#xA;&#x9;&#x9;&#x9;&#x9;&#x9;&#x9;&#x9;&#x9;bnRpdHktSC9OYW1lL0YyL1N1YnR5cGUvVHlwZTAvVG9Vbmljb2RlIDQwIDAgUi9UeXBlL0ZvbnQ+&#xA;&#x9;&#x9;&#x9;&#x9;&#x9;&#x9;&#x9;&#x9;Pg1lbmRvYmoNNyAwIG9iag08PC9CYXNlRm9udC9WZXJkYW5hLEJvbGQvQ0lEU3lzdGVtSW5mbzw8&#xA;&#x9;&#x9;&#x9;&#x9;&#x9;&#x9;&#x9;&#x9;L09yZGVyaW5nKElkZW50aXR5KS9SZWdpc3RyeShBZG9iZSkvU3VwcGxlbWVudCAxPj4vQ0lEVG9H&#xA;&#x9;&#x9;&#x9;&#x9;&#x9;&#x9;&#x9;&#x9;SURNYXAgMjUgMCBSL0ZvbnREZXNjcmlwdG9yIDYgMCBSL1N1YnR5cGUvQ0lERm9udFR5cGUyL1R5&#xA;&#x9;&#x9;&#x9;&#x9;&#x9;&#x9;&#x9;&#x9;cGUvRm9udC9XIDQxIDAgUj4+DWVuZG9iag02IDAgb2JqDTw8L0FzY2VudCAxMDcxLjc3Ny9DSURT&#xA;&#x9;&#x9;&#x9;&#x9;&#x9;&#x9;&#x9;&#x9;ZXQgMjYgMCBSL0NhcEhlaWdodCAwL0Rlc2NlbnQgLTMwMy4yMjI2NTYvRmxhZ3MgMzIvRm9udEJC&#xA;&#x9;&#x9;&#x9;&#x9;&#x9;&#x9;&#x9;&#x9;b3hbIC01NDkuODA0Njg4IC0zMDMuMjIyNjU2IDE3MDcuMDMxIDEwNzEuNzc3XS9Gb250RmlsZTIg&#xA;&#x9;&#x9;&#x9;&#x9;&#x9;&#x9;&#x9;&#x9;MjQgMCBSL0ZvbnROYW1lL1ZlcmRhbmEsQm9sZC9JdGFsaWNBbmdsZSAwL1N0ZW1WIDAvVHlwZS9G&#xA;&#x9;&#x9;&#x9;&#x9;&#x9;&#x9;&#x9;&#x9;b250RGVzY3JpcHRvcj4+DWVuZG9iag01IDAgb2JqDTw8L0RlY29kZVBhcm1zWyBudWxsXS9GaWx0&#xA;&#x9;&#x9;&#x9;&#x9;&#x9;&#x9;&#x9;&#x9;ZXJbL0ZsYXRlRGVjb2RlXS9MZW5ndGggNDM3OT4+c3RyZWFtCnjajJNNbsQwCEavwgkQtsGxT9B1&#xA;&#x9;&#x9;&#x9;&#x9;&#x9;&#x9;&#x9;&#x9;Vz1BfxaeSu39FzU2IEdVpUqJojf6eAPEIXiCBO/wBc/zLnVe2Jgog+SC1OCqXR/fr/ACnxpoJNgz&#xA;&#x9;&#x9;&#x9;&#x9;&#x9;&#x9;&#x9;&#x9;PECkYQ8ezlPQqwqG6Zw+4A0wX42L/iEXZIZrPoiXLGHgCMwodaKHDdV0++mhOJs4Cwxn72f9wtVJ&#xA;&#x9;&#x9;&#x9;&#x9;&#x9;&#x9;&#x9;&#x9;44ukz05EaIf/1Uqk/+7lV4XjX72sfTCmCpeufyoS0UotHIGpY16OHXZcDkqnIPeGJYfA0Ss8fRpy&#xA;&#x9;&#x9;&#x9;&#x9;&#x9;&#x9;&#x9;&#x9;7zqxG4pc+jrd4OgVnj4NZZ6A2sKgqwocgV7h6dPgg7W9yZi77VUa15pslyseeO7BFTG5KYyjxvI3&#xA;&#x9;&#x9;&#x9;&#x9;&#x9;&#x9;&#x9;&#x9;R8xmjpjdHMZRY/mbI6Zrfijo4NhG1Fj+7qgFs/Yxx9QvjoX3LItHMPE+qp53XhsV2bOYQ7gezvED&#xA;&#x9;&#x9;&#x9;&#x9;&#x9;&#x9;&#x9;&#x9;AAD//4yUXQ6AIAyDb2QMIHoo7v8sP+1WFRLf/MzaNBubMTWsf3igzfsWZSpgn0p90lfyqRBlKmZh&#xA;&#x9;&#x9;&#x9;&#x9;&#x9;&#x9;&#x9;&#x9;U4AFmRrWq4d1GR42BXiQqWG9eliX4WFTgAeZGtarx/uG5Xjq3gOLoOy9od8N/OINU0HHvGWRD5pe&#xA;&#x9;&#x9;&#x9;&#x9;&#x9;&#x9;&#x9;&#x9;sJ9BpHqV5KMYuEzy6kgMlwYBFkHpiKHnwC92RAUdT8lBmnbkZxCpXiX5KAaukvhFjyG0l123Jh3t&#xA;&#x9;&#x9;&#x9;&#x9;&#x9;&#x9;&#x9;&#x9;A1yM66L5KSN1j7qZe3IDvE0zIEPC8olD22U5yODucAMAAP//lFZBDsMgDPtRBQgGj+r/z6PFdoyE&#xA;&#x9;&#x9;&#x9;&#x9;&#x9;&#x9;&#x9;&#x9;Ju3oKHHiZSV+cOlrlUgnjC+/9HaNERqApaHU4XdJ0GYQhXqCgpg1zD9x1L69pcDiyCOtNw35wqEk&#xA;&#x9;&#x9;&#x9;&#x9;&#x9;&#x9;&#x9;&#x9;9/fYSAmwlOS51xBCZDOIgD1JQIwSph8YWt62ARwM89/UXAWxqXieIxPxwtBQmm9D0GcAgVoWv9Cq&#xA;&#x9;&#x9;&#x9;&#x9;&#x9;&#x9;&#x9;&#x9;YLYzkLTiQrNnxYUGTh3nZKUT+gykUNe6b5M1zD9xpM/2bQCH1xgws2KxyNGPzt/6tatycQzcEUhj&#xA;&#x9;&#x9;&#x9;&#x9;&#x9;&#x9;&#x9;&#x9;BVTCgHlBBuVMt7InUK7J6zwROPvTf0aLmp+ztfYFAAD//5yXPU/DMBCG81NujIeGxI7TwFhRhi4w&#xA;&#x9;&#x9;&#x9;&#x9;&#x9;&#x9;&#x9;&#x9;eEMMFTSlEqRSG4Tg1/Oez6ZxQKpUZbj4fD4/fuOv/GnnHWfY+Feh9oHW8LlprC6wC5iiqeOPAi+8&#xA;&#x9;&#x9;&#x9;&#x9;&#x9;&#x9;&#x9;&#x9;TyqBj9sBuW9aOLq685OTXOerSzxsQxcYq3unxzxzimYN5dlBYRvNs7UiA9Nnx+DvFLHZxACCX/uI&#xA;&#x9;&#x9;&#x9;&#x9;&#x9;&#x9;&#x9;&#x9;Pd7YM6Ayervg20urQ0iCapv0MathX6SvXWgb871JcCxuQ/RO3M8omlGSEB0BJjlj1DYOK2Y9Csrw&#xA;&#x9;&#x9;&#x9;&#x9;&#x9;&#x9;&#x9;&#x9;G4m8tfif3IqWTmS38SbaEsTntdUWc31OdsyFqepYHfhiMKL6g/S2FiMUXmZgMVcfuAdF1zA3CVVV&#xA;&#x9;&#x9;&#x9;&#x9;&#x9;&#x9;&#x9;&#x9;6hMWLqEXU1WlTbFuRaZ7RSzJMmhFQrli8bj8KpL3CZTha2kbtQonwlkq8w+VwfDaiV6LoAvr1MpM&#xA;&#x9;&#x9;&#x9;&#x9;&#x9;&#x9;&#x9;&#x9;0iKPFqDRt4eoFduvoGkqnmlGnDhObHMxZ6P5qEg4K5GmOk3KOSuniKE/1A8AAAD//6RYywrCQAz0&#xA;&#x9;&#x9;&#x9;&#x9;&#x9;&#x9;&#x9;&#x9;U7wL0m3rPvwCj4IHzyL1pCKK+vsmmVltZUXQU0i32c4kk3Rbg3kE2o7CGwM1Q5JcVdvCjcXCy3Fd&#xA;&#x9;&#x9;&#x9;&#x9;&#x9;&#x9;&#x9;&#x9;EpRsgjvf+2HwCXyYFUtfWSyQXxSeod2h3DQdlXi23LPunn3ZvNSxGd0AuYNkj9ztyvnBbXi3o1uV&#xA;&#x9;&#x9;&#x9;&#x9;&#x9;&#x9;&#x9;&#x9;+Pmkr/Gk5yJhV/9GzstGYJb4rEgbANAPEa3E1csnrGa82yftwzszEV/gnFKG91JXZEbR6ReNk8Ok&#xA;&#x9;&#x9;&#x9;&#x9;&#x9;&#x9;&#x9;&#x9;DO0/SuajddZzdLuqD3ZPqKS0gFlCYHPt5vq1OgHelrG5IlPc3dCtwXnK7Hi4OZWzYZArBzVw22Jm&#xA;&#x9;&#x9;&#x9;&#x9;&#x9;&#x9;&#x9;&#x9;gmlZDz3uLzH70BPzt8ys0YI5M9aosZiTAo/6I2mzzXA59FX3AAAA//+kWDEOwjAM/BEC0iSwIcHC&#xA;&#x9;&#x9;&#x9;&#x9;&#x9;&#x9;&#x9;&#x9;0EdUdEJCIP4/4IvtOCQdqnTqEDU5x+fzxbbXKV/kwp0E8P9Anp0C2lABQStg5HCnzOWV1/G0zhxY&#xA;&#x9;&#x9;&#x9;&#x9;&#x9;&#x9;&#x9;&#x9;ZhPxRQAkwFl04G0tDJFdSFEmKpqPLOuRslz/9WJ0sagv2f+Bc/8azRFeiDXQp7lKJ23wMoNtLWXw&#xA;&#x9;&#x9;&#x9;&#x9;&#x9;&#x9;&#x9;&#x9;zhhuJs4DiwKbDhR9CkOwKr8qTWhbTpLtPaXVKdE7sponTh4fBlyxUcWu+LYGYvBO0KRHdB8YjK4w&#xA;&#x9;&#x9;&#x9;&#x9;&#x9;&#x9;&#x9;&#x9;+ivBVBLrrCQaUxXIiNLjgd4JvhsBRkVxF5XmV07WN2elSZeyTRi8aKsEWDxvrL4SmfaaHwAAAP//&#xA;&#x9;&#x9;&#x9;&#x9;&#x9;&#x9;&#x9;&#x9;nJnNDYMwDIVX6QJIkJS/BXrtoRPQdgIqVWX7GvsZOzSiiBNIKBA7L5+fA+R0of3WOfXcIa9Rq+VA&#xA;&#x9;&#x9;&#x9;&#x9;&#x9;&#x9;&#x9;&#x9;txM2IcYEq5i9o04KkBhLFwIx9XBuY+ReI4niJhLTWX8Elll7pTNoUO8OiZ3tVTKDmRIOJF5UfGZG&#xA;&#x9;&#x9;&#x9;&#x9;&#x9;&#x9;&#x9;&#x9;Ti423JfugkLIiUrO2wL/TpCvXnV5wO7nYnSYEaOlJdjTkzU5EGABx4+mpnbYAGC154Kt1TEPGZO2&#xA;&#x9;&#x9;&#x9;&#x9;&#x9;&#x9;&#x9;&#x9;Ju0ccN237CtIrMerZysRk/q9syiqUpCfcW97cIg4fJnR6vMyzwjTtLDfvW/Da05Lh9iIw+Qkjuvv&#xA;&#x9;&#x9;&#x9;&#x9;&#x9;&#x9;&#x9;&#x9;YPDbVqA2RG+xQcvPT7o7PvCo6CJV54+sz+tsfwEAAP//pFjLDsIgEPwVf6CxD2jLJ3g00aMnSb15&#xA;&#x9;&#x9;&#x9;&#x9;&#x9;&#x9;&#x9;&#x9;URP9e7u4y/CwlcRjSymwOzO7g4+2NjWB2/NKWs+qQ4lE6znF5zr/FDYp4Bwhni9vOQJSzpPk2ngX&#xA;&#x9;&#x9;&#x9;&#x9;&#x9;&#x9;&#x9;&#x9;N78sdNV+huR//OWTH6nqJylY229KYt1r6n66pkw6ljmsh5oDfGQjKwS+xAS+4mbBmcwXdY8BhbdA&#xA;&#x9;&#x9;&#x9;&#x9;&#x9;&#x9;&#x9;&#x9;38hpGnLeTzAObbBWkTqwKty9M8yQNxdNikZTyPMV5CkDu7pDmkLrJ7c3Tm9TSvKgTNn4KQkAVUDn&#xA;&#x9;&#x9;&#x9;&#x9;&#x9;&#x9;&#x9;&#x9;XEaqEV4LwMo85yLmbChBw/dyoFtFPeJ84H78rxzo1qBF3PPSD/DHwWVBvRGv0+ENAAD//6SYQRKC&#xA;&#x9;&#x9;&#x9;&#x9;&#x9;&#x9;&#x9;&#x9;MAxFr6QYS6/g1htgHXbMOIL3N9aEpAkV0WFJmYbm5f+kJqnYf77u8zDMtvkzq7sofnVmkKkwOyzi&#xA;&#x9;&#x9;&#x9;&#x9;&#x9;&#x9;&#x9;&#x9;ikD0Zfbu64kD3wGsFfwHbDr+4Co1lgMzs4CLc5DMbwWzooGarsSNmCZw2dSS3YH/xPhNJcrRYwvx&#xA;&#x9;&#x9;&#x9;&#x9;&#x9;&#x9;&#x9;&#x9;kE39GL6cbercQoxi6id9mhpNkqiB9bsQI4+x1i9aeyn7mMd70cQcknDKbd3sO42X1eXtucjUoGU1&#xA;&#x9;&#x9;&#x9;&#x9;&#x9;&#x9;&#x9;&#x9;EkLuOfeB6/1nd4bQencmIhI+TMSIT0+nRq/NZH2bO/tM2BMAAP//pFnBDoMgDP0iEwlzwnn+yEJ2&#xA;&#x9;&#x9;&#x9;&#x9;&#x9;&#x9;&#x9;&#x9;WOIJT/v7gW1p7RA1uxATMEDb1/daeJ67SirSUfrX0Sb5dfvTlSgDa61vZbkjdaocbRir5J0Jd6ND&#xA;&#x9;&#x9;&#x9;&#x9;&#x9;&#x9;&#x9;&#x9;PDPRuorM1WogqNZUoJVkvg/6AOc7+oiiT/fid4IRVF/nGdmxgjObR9Pbf4uFW6rpC6U+cN8Zrv7m&#xA;&#x9;&#x9;&#x9;&#x9;&#x9;&#x9;&#x9;&#x9;5DH8SnqM9VnwIl7BbZOfl8mvwBURCLZjwLhdgQWeN/3acruf5cWG783AvDgpPbkkp0RyB3nyqm6V&#xA;&#x9;&#x9;&#x9;&#x9;&#x9;&#x9;&#x9;&#x9;JXBbtwZRCMSdXi3ndwUQkbTHw1NW0GS9z1SexiaTfwEAAP//nJnBDoIwDIZ9FI+SaCCpk/EMetDE&#xA;&#x9;&#x9;&#x9;&#x9;&#x9;&#x9;&#x9;&#x9;Iyc97KAhBk14fZV1bddsBrzCRmjXfu3fTXFpBVzJj0GHkUFOdWxUQK+CGqON7arwmbONzgS9VdI6&#xA;&#x9;&#x9;&#x9;&#x9;&#x9;&#x9;&#x9;&#x9;3B9sbIuEddbLzMZMrEh586ARMvNATdxFjQN7Rho/irHYC6MUfF9aaHpfnChCAncWN3JDGdaefR4R&#xA;&#x9;&#x9;&#x9;&#x9;&#x9;&#x9;&#x9;&#x9;k9Y+3SjKfoyXuvjzXdxcJD1bj4qyNhg3f1MYrBCUe03cIT7rJVWSu/9TMVPBxtsxvuSLRLsCxswp&#xA;&#x9;&#x9;&#x9;&#x9;&#x9;&#x9;&#x9;&#x9;JHmMwq7KDFyQaY7dK/HIELWCoUp3PegGeiNV2pP7W6EEEaXz0QrfSvCJ8dxlxhsAAP//pJrNDoIw&#xA;&#x9;&#x9;&#x9;&#x9;&#x9;&#x9;&#x9;&#x9;EISfSCMUgnjVxOcATeBAOEiMr29Ztrvd7RL8uRJSJiWdznzt5zjGuaim+UCfRexchApcASsh9cuQ&#xA;&#x9;&#x9;&#x9;&#x9;&#x9;&#x9;&#x9;&#x9;vAkK6tSk+WCwkybKFjVI91VABod9SbNHMtSrTHELlSQM1ofCQYu9ZYCxK1IohW9NiexRdp27ZE4t&#xA;&#x9;&#x9;&#x9;&#x9;&#x9;&#x9;&#x9;&#x9;R5HSLLjWFA0Si3Xkd2pGmuBgK71L/VUFgqRLngzY7g4l4CtE2j9FnfkmG2xvlHPiEjyRwjxSY8PP&#xA;&#x9;&#x9;&#x9;&#x9;&#x9;&#x9;&#x9;&#x9;0QLHWVHt4Ruz0rx2/xyU+sZ/VHKvi7AHSXvKhKnzOt4haPwc67Cqg8cZfyIet/J+AU8vWFxgxDcA&#xA;&#x9;&#x9;&#x9;&#x9;&#x9;&#x9;&#x9;&#x9;AAD//7RaOQ6EMAz8Ci9AwsvhlFS8A1FvtSvx/TWKg68UCLQlEkGOmcw4Hr/EqOHF74C31q6f8yMD&#xA;&#x9;&#x9;&#x9;&#x9;&#x9;&#x9;&#x9;&#x9;Zpd+UamLUQudY4r1/Cq9mTBHpyvpRWYR+ngEJAsOrypNMMY0Xbj3VstyxgBQuUFKNz2HAKTODLdo&#xA;&#x9;&#x9;&#x9;&#x9;&#x9;&#x9;&#x9;&#x9;N3NT7G5P0Ec44qt7n9pQdl0AqO6DtkDiTsp82wQp+8BO1B3dPANaT97NM7AHmyoqv6lyd8oYCcwB&#xA;&#x9;&#x9;&#x9;&#x9;&#x9;&#x9;&#x9;&#x9;wzHC1/TQjg+YAw7jsvyH2TKHdAWGeMmpcgTHRCi57/2WxOrA/s8RPwAAAP//vJrbDYAgDAA3MryR&#xA;&#x9;&#x9;&#x9;&#x9;&#x9;&#x9;&#x9;&#x9;KUwcwRF0/0TLu1j5wfCNBGvJVcoBI4h41Bo2qxgRemJA2jdB8I6HN1WmMhko+Lj3eGGPD+6BDw/V&#xA;&#x9;&#x9;&#x9;&#x9;&#x9;&#x9;&#x9;&#x9;KhbBKwNhb240SfDUWCvgcZgKCTyRK1/9FPztLeZO5+xW/nD7/UGJC/lW1kkTDnxPcuZno/3CGrHG&#xA;&#x9;&#x9;&#x9;&#x9;&#x9;&#x9;&#x9;&#x9;kqmX/ixuzQ+Zl2rJzlOlV0xinQCd4A/UgbI6k3MpAOiKBPuaDZcdrmlL6wYAAP//rJrNDoMgDICf&#xA;&#x9;&#x9;&#x9;&#x9;&#x9;&#x9;&#x9;&#x9;aAl1SOjN0x7ExMyTh3nx8UWw0PKzLGEnE4kHP1tK69fnIv3gZw1SvNDyoTFpWxWpy1SxqDAsGuwf&#xA;&#x9;&#x9;&#x9;&#x9;&#x9;&#x9;&#x9;&#x9;qrFiEfpyb+9HYPQXIeEIQ2MO5PbVPBctBYiSB7/NpCwseZCWYZrKVgkE8Ap0MKpDDwk4AMdOP+tT&#xA;&#x9;&#x9;&#x9;&#x9;&#x9;&#x9;&#x9;&#x9;Pef5pelqNpCckgcfwWWG45aWUeysh2zT9ihk0WayVvnYkEca+/MILMsjB0GzkjHLotwMG2or75Oz&#xA;&#x9;&#x9;&#x9;&#x9;&#x9;&#x9;&#x9;&#x9;uzwhfep3bKUzmSCD9a3WE44lZlWT0gkAAP//grWqDM2MwDN/xK7gxdGsMjQD7fVEjKUhLytOR5lZ&#xA;&#x9;&#x9;&#x9;&#x9;&#x9;&#x9;&#x9;&#x9;zsHmCFPwQjozCt1gaoboZUFtw960wxxk0YWt6bbAGBKHy6LOUWFtD0JDkyrtJ+QgHW0+DdrmEzQF&#xA;&#x9;&#x9;&#x9;&#x9;&#x9;&#x9;&#x9;&#x9;G5lCdgpQMlEKWmtigNJmNsaSDBPhu18sUJMyckJPRfT1dS0xV4hZaQIAAAD//8KWeCF+IH62F1/i&#xA;&#x9;&#x9;&#x9;&#x9;&#x9;&#x9;&#x9;&#x9;RfYIdLUeYiQwCXV4LgfRMddFGhfzRszZFKO1GtHm+NHGAdGGFI1Rm2n+SAUnVAP6OF0RgaWOWFOA&#xA;&#x9;&#x9;&#x9;&#x9;&#x9;&#x9;&#x9;&#x9;gTl4K4QRkQOuuFKAoRFiHisAFl+wYSvETBvyIqJK1OlrtPFmaGkG48KMKkP4GSWlYC/XIJ6jSpMU&#xA;&#x9;&#x9;&#x9;&#x9;&#x9;&#x9;&#x9;&#x9;xYew4gYW9S4IV5rD5m1RVmPANCRirG7IR515yUddr4cYLAUb44k6MIwxDwzjog2GpmILHAtLPRPw&#xA;&#x9;&#x9;&#x9;&#x9;&#x9;&#x9;&#x9;&#x9;JjlTM8pbppbGeuaGlpaWaOPtmMNs0JxQhDG4jDbBaIjNyeaWAAAAAP//vFtdDoIwDOYoXAA3GEzw&#xA;&#x9;&#x9;&#x9;&#x9;&#x9;&#x9;&#x9;&#x9;BN4DEkV5Az2/++nXdcTEFzU8ELZ2+9p1GV1btzs95C+4Sb1DbLU2//WVdBnqOeuh7IYQ+e3b+qPe&#xA;&#x9;&#x9;&#x9;&#x9;&#x9;&#x9;&#x9;&#x9;Owd2L4V2bY2vmWQfySBpjoPaWcAV2Uo45mpBXaYL/MomI9yYEAQi7wWXTEfRvZ99IrKZrZw5L9w1&#xA;&#x9;&#x9;&#x9;&#x9;&#x9;&#x9;&#x9;&#x9;EjGYFh5uikyzOEJQ0GhztBUJaWItII+5/kb5voLC2V+2AlDN7ASA2k6F8g/wU3q9b11TGR7SGQKH&#xA;&#x9;&#x9;&#x9;&#x9;&#x9;&#x9;&#x9;&#x9;QuBiCU6UFV1X+q6wYaD9h8i79e97HEGFnxUrJoGibgxw5ApUUp4qzhxUBoADfe+BKF9U2ApzglCb&#xA;&#x9;&#x9;&#x9;&#x9;&#x9;&#x9;&#x9;&#x9;9yHqN/aQpktLJJgNpYoGZT2jFE0O4gUAAP//AlVpELudkRYemCHZ4YzRrIKsKYQr0ENME1hirFKm&#xA;&#x9;&#x9;&#x9;&#x9;&#x9;&#x9;&#x9;&#x9;Yv401jMxB5aISBsbYa0ES2g9Zoa9+WeMUfxRzVWmRkagvSY4nGYE35YEC2pswrAYgUkbQqQtoFwd&#xA;&#x9;&#x9;&#x9;&#x9;&#x9;&#x9;&#x9;&#x9;pJrPGCEN02UF14c6WhKoAAAAAP//AwB/GsB4DWVuZHN0cmVhbQ1lbmRvYmoNNCAwIG9iag08PC9B&#xA;&#x9;&#x9;&#x9;&#x9;&#x9;&#x9;&#x9;&#x9;bm5vdHNbIDEyIDAgUiAxNyAwIFIgMTkgMCBSXS9Db250ZW50cyA1IDAgUi9NZWRpYUJveFsgMCAw&#xA;&#x9;&#x9;&#x9;&#x9;&#x9;&#x9;&#x9;&#x9;IDU5NS4zMiA4NDEuOTJdL1BhcmVudCAxIDAgUi9SZXNvdXJjZXMgMyAwIFIvVHlwZS9QYWdlPj4N&#xA;&#x9;&#x9;&#x9;&#x9;&#x9;&#x9;&#x9;&#x9;ZW5kb2JqDTMgMCBvYmoNPDwvRm9udDw8L0YyIDggMCBSL0YzIDExIDAgUi9GNCAxNiAwIFIvRjUg&#xA;&#x9;&#x9;&#x9;&#x9;&#x9;&#x9;&#x9;&#x9;MjMgMCBSPj4+Pg1lbmRvYmoNMiAwIG9iag08PC9NYXJrSW5mbzw8L01hcmtlZCB0cnVlPj4vTWV0&#xA;&#x9;&#x9;&#x9;&#x9;&#x9;&#x9;&#x9;&#x9;YWRhdGEgMzkgMCBSL09wZW5BY3Rpb25bIDQgMCBSL0ZpdF0vT3V0cHV0SW50ZW50c1sgMzggMCBS&#xA;&#x9;&#x9;&#x9;&#x9;&#x9;&#x9;&#x9;&#x9;XS9QYWdlTGF5b3V0L09uZUNvbHVtbi9QYWdlTW9kZS9Vc2VOb25lL1BhZ2VzIDEgMCBSL1N0cnVj&#xA;&#x9;&#x9;&#x9;&#x9;&#x9;&#x9;&#x9;&#x9;dFRyZWVSb290PDwvVHlwZS9TdHJ1Y3RUcmVlUm9vdD4+L1R5cGUvQ2F0YWxvZy9WaWV3ZXJQcmVm&#xA;&#x9;&#x9;&#x9;&#x9;&#x9;&#x9;&#x9;&#x9;ZXJlbmNlczw8L0NlbnRlcldpbmRvdyB0cnVlL0RpcmVjdGlvbi9MMlIvRGlzcGxheURvY1RpdGxl&#xA;&#x9;&#x9;&#x9;&#x9;&#x9;&#x9;&#x9;&#x9;IGZhbHNlL0ZpdFdpbmRvdyBmYWxzZS9IaWRlTWVudWJhciBmYWxzZS9IaWRlVG9vbGJhciBmYWxz&#xA;&#x9;&#x9;&#x9;&#x9;&#x9;&#x9;&#x9;&#x9;ZS9IaWRlV2luZG93VUkgZmFsc2UvTm9uRnVsbFNjcmVlblBhZ2VNb2RlL1VzZU5vbmUvUHJpbnRB&#xA;&#x9;&#x9;&#x9;&#x9;&#x9;&#x9;&#x9;&#x9;cmVhL0Nyb3BCb3gvUHJpbnRDbGlwL0Nyb3BCb3gvVmlld0FyZWEvQ3JvcEJveC9WaWV3Q2xpcC9D&#xA;&#x9;&#x9;&#x9;&#x9;&#x9;&#x9;&#x9;&#x9;cm9wQm94Pj4+Pg1lbmRvYmoNMSAwIG9iag08PC9Db3VudCAxL0tpZHNbIDQgMCBSXS9UeXBlL1Bh&#xA;&#x9;&#x9;&#x9;&#x9;&#x9;&#x9;&#x9;&#x9;Z2VzPj4NZW5kb2JqDXhyZWYNCjAgNDUNCjAwMDAwMDAwMDAgNjU1MzUgZg0KMDAwMDA3MTU1MyAw&#xA;&#x9;&#x9;&#x9;&#x9;&#x9;&#x9;&#x9;&#x9;MDAwMCBuDQowMDAwMDcxMDk3IDAwMDAwIG4NCjAwMDAwNzEwMjkgMDAwMDAgbg0KMDAwMDA3MDg5&#xA;&#x9;&#x9;&#x9;&#x9;&#x9;&#x9;&#x9;&#x9;NiAwMDAwMCBuDQowMDAwMDY2NDI4IDAwMDAwIG4NCjAwMDAwNjYyMDMgMDAwMDAgbg0KMDAwMDA2&#xA;&#x9;&#x9;&#x9;&#x9;&#x9;&#x9;&#x9;&#x9;NjAxNSAwMDAwMCBuDQowMDAwMDY1ODgwIDAwMDAwIG4NCjAwMDAwNjU2NjAgMDAwMDAgbg0KMDAw&#xA;&#x9;&#x9;&#x9;&#x9;&#x9;&#x9;&#x9;&#x9;MDA2NTQ3NiAwMDAwMCBuDQowMDAwMDY1MzQ0IDAwMDAwIG4NCjAwMDAwNjUyMjAgMDAwMDAgbg0K&#xA;&#x9;&#x9;&#x9;&#x9;&#x9;&#x9;&#x9;&#x9;MDAwMDA2NTE1OSAwMDAwMCBuDQowMDAwMDY0OTM0IDAwMDAwIG4NCjAwMDAwNjQ3NDIgMDAwMDAg&#xA;&#x9;&#x9;&#x9;&#x9;&#x9;&#x9;&#x9;&#x9;bg0KMDAwMDA2NDYwMyAwMDAwMCBuDQowMDAwMDY0NDgwIDAwMDAwIG4NCjAwMDAwNjQ0MTggMDAw&#xA;&#x9;&#x9;&#x9;&#x9;&#x9;&#x9;&#x9;&#x9;MDAgbg0KMDAwMDA2NDI5NCAwMDAwMCBuDQowMDAwMDY0MjQxIDAwMDAwIG4NCjAwMDAwNjQwMTQg&#xA;&#x9;&#x9;&#x9;&#x9;&#x9;&#x9;&#x9;&#x9;MDAwMDAgbg0KMDAwMDA2MzgyMyAwMDAwMCBuDQowMDAwMDYzNjg1IDAwMDAwIG4NCjAwMDAwNTYx&#xA;&#x9;&#x9;&#x9;&#x9;&#x9;&#x9;&#x9;&#x9;MzUgMDAwMDAgbg0KMDAwMDA1NTk1NyAwMDAwMCBuDQowMDAwMDU1ODM5IDAwMDAwIG4NCjAwMDAw&#xA;&#x9;&#x9;&#x9;&#x9;&#x9;&#x9;&#x9;&#x9;NDAxMTMgMDAwMDAgbg0KMDAwMDAzOTkwOCAwMDAwMCBuDQowMDAwMDM5Nzg5IDAwMDAwIG4NCjAw&#xA;&#x9;&#x9;&#x9;&#x9;&#x9;&#x9;&#x9;&#x9;MDAwMzAzMTEgMDAwMDAgbg0KMDAwMDAzMDEzMSAwMDAwMCBuDQowMDAwMDMwMDEyIDAwMDAwIG4N&#xA;&#x9;&#x9;&#x9;&#x9;&#x9;&#x9;&#x9;&#x9;CjAwMDAwMDYwMTkgMDAwMDAgbg0KMDAwMDAwNTg0MCAwMDAwMCBuDQowMDAwMDA1NzIyIDAwMDAw&#xA;&#x9;&#x9;&#x9;&#x9;&#x9;&#x9;&#x9;&#x9;IG4NCjAwMDAwMDU1NjYgMDAwMDAgbg0KMDAwMDAwNDc0NiAwMDAwMCBuDQowMDAwMDA0NTYyIDAw&#xA;&#x9;&#x9;&#x9;&#x9;&#x9;&#x9;&#x9;&#x9;MDAwIG4NCjAwMDAwMDIyMjAgMDAwMDAgbg0KMDAwMDAwMTkwMSAwMDAwMCBuDQowMDAwMDAxNDk3&#xA;&#x9;&#x9;&#x9;&#x9;&#x9;&#x9;&#x9;&#x9;IDAwMDAwIG4NCjAwMDAwMDA4NzcgMDAwMDAgbg0KMDAwMDAwMDQzOCAwMDAwMCBuDQowMDAwMDAw&#xA;&#x9;&#x9;&#x9;&#x9;&#x9;&#x9;&#x9;&#x9;MDE1IDAwMDAwIG4NCnRyYWlsZXINCjw8L0lEWyiahmNmMupBpJtHX+1xBYWyhbIpKGdOubJSn0K6&#xA;&#x9;&#x9;&#x9;&#x9;&#x9;&#x9;&#x9;&#x9;reX2FuXKRptGmyldL0luZm8gMzYgMCBSL1Jvb3QgMiAwIFIvU2l6ZSA0NT4+DQpzdGFydHhyZWYN&#xA;&#x9;&#x9;&#x9;&#x9;&#x9;&#x9;&#x9;&#x9;CjcxNjA1DQolJUVPRg=="/>
      </Binary>
    </resource>
  </entry>
</Bundle>