<Bundle xmlns="http://hl7.org/fhir">
    <id value="CdaContainingOriginalRepresentationAsPdfA"/>
    <identifier>
        <system value="urn:ietf:rfc:3986"/>
        <value value="urn:uuid:11778932-3d19-486b-afe6-e32a1165c978"/>
    </identifier>
    <type value="document"/>
    <timestamp value="2018-02-06T16:57:00+01:00"/>
    <entry>
        <fullUrl value="urn:uuid:991633bb-f27c-484c-9822-334f1b635e75"/>
        <resource>
            <Composition xmlns="http://hl7.org/fhir">
                <id value="991633bb-f27c-484c-9822-334f1b635e75"/>
                <language value="en-US"/>
                <text>
                    <status value="extensions"/>
                    <div xmlns="http://www.w3.org/1999/xhtml" xml:lang="en-US" lang="en-US">
                        <p>
                            <b>Generated Narrative</b>
                        </p>
                        <p>
                            <b>EPR Version Number</b>: 1</p>
                        <p>
                            <b>EPR Information Recipient</b>:                            <a href="#Organization_e118f753-caaa-4696-991a-b20a796ce782">See above (Organization/e118f753-caaa-4696-991a-b20a796ce782)</a>
                        </p>
                        <blockquote>
                            <p>
                                <b>EPR Data Enterer</b>
                            </p>
                            <h3>Urls</h3>
                            <table class="grid">
                                <tr>
                                    <td>-</td>
                                </tr>
                                <tr>
                                    <td>*</td>
                                </tr>
                            </table>
                            <p>
                                <b>value</b>:                                <a href="#PractitionerRole_cac33923-b081-4060-bd57-46ee35dd5a33">See above (PractitionerRole/cac33923-b081-4060-bd57-46ee35dd5a33)</a>
                            </p>
                            <h3>Urls</h3>
                            <table class="grid">
                                <tr>
                                    <td>-</td>
                                </tr>
                                <tr>
                                    <td>*</td>
                                </tr>
                            </table>
                            <p>
                                <b>value</b>: 3 Oct 2017, 14:15:00</p>
                        </blockquote>
                        <p>
                            <b>identifier</b>: id: urn:uuid:11778932-3d19-486b-afe6-e32a1165c978</p>
                        <p>
                            <b>status</b>: final</p>
                        <p>
                            <b>type</b>:                            <span title="Codes: {http://loinc.org 28616-1}, {http://snomed.info/sct 371535009}">Physician Transfer note</span>
                        </p>
                        <p>
                            <b>date</b>: 6 Feb 2018, 16:57:00</p>
                        <p>
                            <b>author</b>: 
                        </p>
                        <ul>
                            <li>
                                <a href="#Practitioner_5e5d0948-61b0-4555-9a8f-40bacdc0cb8c">See above (Practitioner/5e5d0948-61b0-4555-9a8f-40bacdc0cb8c)</a>
                            </li>
                            <li>
                                <a href="#Organization_74f3642a-835f-407a-a427-5e403fe8b0b3">See above (Organization/74f3642a-835f-407a-a427-5e403fe8b0b3)</a>
                            </li>
                        </ul>
                        <p>
                            <b>title</b>: Transfer note for radiological diagnostics</p>
                        <p>
                            <b>confidentiality</b>: N</p>
                        <h3>Attesters</h3>
                        <table class="grid">
                            <tr>
                                <td>-</td>
                                <td>
                                    <b>Mode</b>
                                </td>
                                <td>
                                    <b>Time</b>
                                </td>
                                <td>
                                    <b>Party</b>
                                </td>
                            </tr>
                            <tr>
                                <td>*</td>
                                <td>legal</td>
                                <td>2017-10-03</td>
                                <td>
                                    <a href="#Practitioner_7347db10-d4b3-4cc4-be86-dc2224fdf030">See above (Practitioner/7347db10-d4b3-4cc4-be86-dc2224fdf030)</a>
                                </td>
                            </tr>
                        </table>
                        <p>
                            <b>custodian</b>:                            <a href="#Organization_28c3d63b-47d4-4f5f-9bbe-afd3a19cefc2">See above (Organization/28c3d63b-47d4-4f5f-9bbe-afd3a19cefc2)</a>
                        </p>
                    </div>
                </text>
                <extension url="http://fhir.ch/ig/ch-core/StructureDefinition/ch-ext-epr-versionnumber">
                    <valueUnsignedInt value="1"/>
                </extension>
                <extension url="http://fhir.ch/ig/ch-core/StructureDefinition/ch-ext-epr-informationrecipient">
                    <valueReference>
                        <reference value="Organization/e118f753-caaa-4696-991a-b20a796ce782"/>
                    </valueReference>
                </extension>
                <extension url="http://fhir.ch/ig/ch-core/StructureDefinition/ch-ext-epr-dataenterer">
                    <extension url="enterer">
                        <valueReference>
                            <reference value="PractitionerRole/cac33923-b081-4060-bd57-46ee35dd5a33"/>
                        </valueReference>
                    </extension>
                    <extension url="http://fhir.ch/ig/ch-core/StructureDefinition/ch-ext-epr-time">
                        <valueDateTime value="2017-10-03T13:15:00+01:00"/>
                    </extension>
                </extension>
                <identifier>
                    <system value="urn:ietf:rfc:3986"/>
                    <value value="urn:uuid:11778932-3d19-486b-afe6-e32a1165c978"/>
                </identifier>
                <status value="final"/>
                <type>
                    <coding>
                        <system value="http://loinc.org"/>
                        <code value="28616-1"/>
                        <display value="Physician Transfer note"/>
                    </coding>
                    <coding>
                        <system value="http://snomed.info/sct"/>
                        <code value="371535009"/>
                        <display value="Transfer summary report"/>
                    </coding>
                </type>
                <subject>
                    <reference value="Patient/d80b05d6-2b3b-443e-9797-e4ac8615f7ce"/>
                </subject>
                <date value="2018-02-06T16:57:00+01:00"/>
                <author>
                    <extension url="http://fhir.ch/ig/ch-core/StructureDefinition/ch-ext-epr-time">
                        <valueDateTime value="2017-10-03T16:09:00+01:00"/>
                    </extension>
                    <reference value="Practitioner/5e5d0948-61b0-4555-9a8f-40bacdc0cb8c"/>
                </author>
                <author>
                    <reference value="Organization/74f3642a-835f-407a-a427-5e403fe8b0b3"/>
                </author>
                <title value="Transfer note for radiological diagnostics"/>
                <confidentiality value="N">
                    <extension url="http://fhir.ch/ig/ch-core/StructureDefinition/ch-ext-epr-confidentialitycode">
                        <valueCodeableConcept>
                            <coding>
                                <system value="http://snomed.info/sct"/>
                                <code value="17621005"/>
                                <display value="Normally accessible"/>
                            </coding>
                        </valueCodeableConcept>
                    </extension>
                </confidentiality>
                <attester>
                    <mode value="legal"/>
                    <time value="2017-10-03"/>
                    <party>
                        <reference value="Practitioner/7347db10-d4b3-4cc4-be86-dc2224fdf030"/>
                    </party>
                </attester>
                <custodian>
                    <reference value="Organization/28c3d63b-47d4-4f5f-9bbe-afd3a19cefc2"/>
                </custodian>
                <section>
                    <title value="Ordered diagnostics"/>
                    <text>
                        <status value="generated"/>
                        <div xmlns="http://www.w3.org/1999/xhtml">
                            <span> The patient is awaiting your invitation.<br/>
                            </span>
                            <span style="font-style: italic"> Specification of the desired examination<br/>
                            </span>
                        </div>
                    </text>
                </section>
                <section>
                    <title value="Urgency / preferred date"/>
                    <text>
                        <status value="generated"/>
                        <div xmlns="http://www.w3.org/1999/xhtml">
                            <span style="font-style: italic"> Information on the preferred date </span>
                        </div>
                    </text>
                </section>
                <section>
                    <title value="Question"/>
                    <text>
                        <status value="generated"/>
                        <div xmlns="http://www.w3.org/1999/xhtml">
                            <span style="font-style: italic"> Reason for the examination and information on the current conditions </span>
                        </div>
                    </text>
                </section>
                <section>
                    <title value="Information about the patient"/>
                    <text>
                        <status value="generated"/>
                        <div xmlns="http://www.w3.org/1999/xhtml">
                            <span style="font-style: italic"> Successful preliminary examinations<br/>
 Diagnostic copy - receiver<br/>
                        </span>
                    </div>
                </text>
            </section>
            <section>
                <title value="Clinical information"/>
                <text>
                    <status value="generated"/>
                    <div xmlns="http://www.w3.org/1999/xhtml">
                        <span style="font-style: italic"> Description of the current conditions<br/>
 Pregnancy (yes / no)<br/>
 Laboratory results (Quick / Tc, creatinine)<br/>
 Known allergies<br/>
            </span>
        </div>
    </text>
</section>
<section>
    <title value="Original representation"/>
    <code>
        <coding>
            <system value="http://loinc.org"/>
            <code value="55108-5"/>
            <display value="Clinical presentation"/>
        </coding>
    </code>
    <text>
        <status value="generated"/>
        <div xmlns="http://www.w3.org/1999/xhtml"> Representation of the original view: <img src="pdf1"/>
        </div>
    </text>
    <entry>
        <extension url="http://hl7.org/fhir/StructureDefinition/narrativeLink">
            <valueUrl value="pdf1"/>
        </extension>
        <reference value="Binary/8f304c87-ed20-4e9a-b928-db4116eb6594"/>
    </entry>
</section>
</Composition>
</resource>
</entry>
<entry>
<fullUrl value="urn:uuid:d80b05d6-2b3b-443e-9797-e4ac8615f7ce"/>
<resource>
<Patient xmlns="http://hl7.org/fhir">
<id value="d80b05d6-2b3b-443e-9797-e4ac8615f7ce"/>
<text>
    <status value="generated"/>
    <div xmlns="http://www.w3.org/1999/xhtml">
        <p>
            <b>Generated Narrative</b>
        </p>
        <p>
            <b>identifier</b>: Medical record number: 8733</p>
        <p>
            <b>name</b>: John DOE (OFFICIAL)</p>
        <p>
            <b>telecom</b>:            <a href="tel:+41.32.685.12.34">+41.32.685.12.34</a>,            <a href="tel:+41.32.123.77.88">+41.32.123.77.88</a>,            <a href="mailto:john.doe@sampledomain.ch">john.doe@sampledomain.ch</a>
        </p>
        <p>
            <b>gender</b>: male</p>
        <p>
            <b>birthDate</b>: 1948-06-11</p>
        <p>
            <b>address</b>: suffering avenue 10 Specimentown 9876 CH (HOME)</p>
        <p>
            <b>managingOrganization</b>:            <a href="#Organization_c1a98d0c-802b-4cce-b922-93eee325cc14">See above (Organization/c1a98d0c-802b-4cce-b922-93eee325cc14)</a>
        </p>
    </div>
</text>
<identifier>
    <type>
        <coding>
            <system value="http://terminology.hl7.org/CodeSystem/v2-0203"/>
            <code value="MR"/>
        </coding>
    </type>
    <system value="urn:oid:2.999"/>
    <value value="8733"/>
</identifier>
<name>
    <use value="official"/>
    <family value="DOE"/>
    <given value="John"/>
</name>
<telecom>
    <system value="phone"/>
    <value value="+41.32.685.12.34"/>
    <use value="home"/>
</telecom>
<telecom>
    <system value="phone"/>
    <value value="+41.32.123.77.88"/>
    <use value="work"/>
</telecom>
<telecom>
    <system value="email"/>
    <value value="john.doe@sampledomain.ch"/>
    <use value="work"/>
</telecom>
<gender value="male"/>
<birthDate value="1948-06-11"/>
<address>
    <use value="home"/>
    <line value="suffering avenue"/>
    <line value="10"/>
    <city value="Specimentown"/>
    <postalCode value="9876"/>
    <country value="CH"/>
</address>
<managingOrganization>
    <reference value="Organization/c1a98d0c-802b-4cce-b922-93eee325cc14"/>
</managingOrganization>
</Patient>
</resource>
</entry>
<entry>
<fullUrl value="urn:uuid:c1a98d0c-802b-4cce-b922-93eee325cc14"/>
<resource>
<Organization xmlns="http://hl7.org/fhir">
<id value="c1a98d0c-802b-4cce-b922-93eee325cc14"/>
<text>
    <status value="generated"/>
    <div xmlns="http://www.w3.org/1999/xhtml">
        <p>
            <b>Generated Narrative</b>
        </p>
        <p>
            <b>identifier</b>: id: 7608888888888</p>
        <p>
            <b>name</b>: Dr. med. Always Ready, Group practice CH</p>
    </div>
</text>
<identifier>
    <system value="urn:oid:2.51.1.3"/>
    <value value="7608888888888"/>
</identifier>
<name value="Dr. med. Always Ready, Group practice CH"/>
</Organization>
</resource>
</entry>
<entry>
<fullUrl value="urn:uuid:5e5d0948-61b0-4555-9a8f-40bacdc0cb8c"/>
<resource>
<Practitioner xmlns="http://hl7.org/fhir">
<id value="5e5d0948-61b0-4555-9a8f-40bacdc0cb8c"/>
<text>
    <status value="generated"/>
    <div xmlns="http://www.w3.org/1999/xhtml">
        <p>
            <b>Generated Narrative</b>
        </p>
        <p>
            <b>identifier</b>: id: 7608888888888</p>
        <p>
            <b>name</b>: Always Ready (OFFICIAL)</p>
    </div>
</text>
<identifier>
    <system value="urn:oid:2.51.1.3"/>
    <value value="7608888888888"/>
</identifier>
<name>
    <use value="official"/>
    <family value="Ready"/>
    <given value="Always"/>
    <prefix value="Dr. med."/>
    <suffix value="General practitioner"/>
</name>
</Practitioner>
</resource>
</entry>
<entry>
<fullUrl value="urn:uuid:74f3642a-835f-407a-a427-5e403fe8b0b3"/>
<resource>
<Organization xmlns="http://hl7.org/fhir">
<id value="74f3642a-835f-407a-a427-5e403fe8b0b3"/>
<text>
    <status value="generated"/>
    <div xmlns="http://www.w3.org/1999/xhtml">
        <p>
            <b>Generated Narrative</b>
        </p>
        <p>
            <b>identifier</b>: id: 7609999999999</p>
        <p>
            <b>name</b>: Group practice CH</p>
        <p>
            <b>telecom</b>:            <a href="tel:+41.32.234.55.66">+41.32.234.55.66</a>, fax: +41.32.234.66.77(WORK), <a href="mailto:ready@gruppenpraxis.ch">ready@gruppenpraxis.ch</a>,            <a href="www.grouppractice.ch">www.grouppractice.ch</a>
        </p>
        <p>
            <b>address</b>: doctors street 2 Samplecity 8888 CH (WORK)</p>
    </div>
</text>
<identifier>
    <system value="urn:oid:2.51.1.3"/>
    <value value="7609999999999"/>
</identifier>
<name value="Group practice CH"/>
<telecom>
    <system value="phone"/>
    <value value="+41.32.234.55.66"/>
    <use value="work"/>
</telecom>
<telecom>
    <system value="fax"/>
    <value value="+41.32.234.66.77"/>
    <use value="work"/>
</telecom>
<telecom>
    <system value="email"/>
    <value value="ready@gruppenpraxis.ch"/>
    <use value="work"/>
</telecom>
<telecom>
    <system value="url"/>
    <value value="www.grouppractice.ch"/>
    <use value="work"/>
</telecom>
<address>
    <use value="work"/>
    <line value="doctors street"/>
    <line value="2"/>
    <city value="Samplecity"/>
    <postalCode value="8888"/>
    <country value="CH"/>
</address>
</Organization>
</resource>
</entry>
<entry>
<fullUrl value="urn:uuid:7347db10-d4b3-4cc4-be86-dc2224fdf030"/>
<resource>
<Practitioner xmlns="http://hl7.org/fhir">
<id value="7347db10-d4b3-4cc4-be86-dc2224fdf030"/>
<text>
    <status value="generated"/>
    <div xmlns="http://www.w3.org/1999/xhtml">
        <p>
            <b>Generated Narrative</b>
        </p>
        <p>
            <b>identifier</b>: id: 7607777777777</p>
        <p>
            <b>name</b>: Always Ready (OFFICIAL)</p>
    </div>
</text>
<identifier>
    <system value="urn:oid:2.51.1.3"/>
    <value value="7607777777777"/>
</identifier>
<name>
    <use value="official"/>
    <family value="Ready"/>
    <given value="Always"/>
    <prefix value="Dr. med."/>
    <suffix value="General practitioner"/>
</name>
</Practitioner>
</resource>
</entry>
<entry>
<fullUrl value="urn:uuid:28c3d63b-47d4-4f5f-9bbe-afd3a19cefc2"/>
<resource>
<Organization xmlns="http://hl7.org/fhir">
<id value="28c3d63b-47d4-4f5f-9bbe-afd3a19cefc2"/>
<text>
    <status value="generated"/>
    <div xmlns="http://www.w3.org/1999/xhtml">
        <p>
            <b>Generated Narrative</b>
        </p>
        <p>
            <b>identifier</b>: id: 7608888888888</p>
        <p>
            <b>name</b>: Group practice CH, Dr. med. Always Ready, General practitioner</p>
        <p>
            <b>address</b>: Doctors street 2 Samplecity 8888 CH (WORK)</p>
    </div>
</text>
<identifier>
    <system value="urn:oid:2.51.1.3"/>
    <value value="7608888888888"/>
</identifier>
<name value="Group practice CH, Dr. med. Always Ready, General practitioner"/>
<address>
    <use value="work"/>
    <line value="Doctors street"/>
    <line value="2"/>
    <city value="Samplecity"/>
    <postalCode value="8888"/>
    <country value="CH"/>
</address>
</Organization>
</resource>
</entry>
<entry>
<fullUrl value="urn:uuid:e118f753-caaa-4696-991a-b20a796ce782"/>
<resource>
<Organization xmlns="http://hl7.org/fhir">
<id value="e118f753-caaa-4696-991a-b20a796ce782"/>
<text>
    <status value="generated"/>
    <div xmlns="http://www.w3.org/1999/xhtml">
        <p>
            <b>Generated Narrative</b>
        </p>
        <p>
            <b>identifier</b>: id: 7603333333333</p>
        <p>
            <b>name</b>: RoDiag Radiology Institute</p>
        <p>
            <b>address</b>: Raystreet 1 Samplecity 8888 CH (WORK)</p>
    </div>
</text>
<identifier>
    <system value="urn:oid:2.51.1.3"/>
    <value value="7603333333333"/>
</identifier>
<name value="RoDiag Radiology Institute"/>
<address>
    <use value="work"/>
    <line value="Raystreet"/>
    <line value="1"/>
    <city value="Samplecity"/>
    <postalCode value="8888"/>
    <country value="CH"/>
</address>
</Organization>
</resource>
</entry>
<entry>
<fullUrl value="urn:uuid:cac33923-b081-4060-bd57-46ee35dd5a33"/>
<resource>
<PractitionerRole xmlns="http://hl7.org/fhir">
<id value="cac33923-b081-4060-bd57-46ee35dd5a33"/>
<text>
    <status value="generated"/>
    <div xmlns="http://www.w3.org/1999/xhtml">
        <p>
            <b>Generated Narrative</b>
        </p>
        <p>
            <b>practitioner</b>:            <a href="#Practitioner_urn:uuid:be3ba855-6bef-4c36-92a1-8b76fefd3629">See above (Practitioner/urn:uuid:be3ba855-6bef-4c36-92a1-8b76fefd3629)</a>
        </p>
    </div>
</text>
<practitioner>
    <reference value="urn:uuid:be3ba855-6bef-4c36-92a1-8b76fefd3629"/>
    <type value="Practitioner"/>
</practitioner>
</PractitionerRole>
</resource>
</entry>
<entry>
<fullUrl value="urn:uuid:be3ba855-6bef-4c36-92a1-8b76fefd3629"/>
<resource>
<Practitioner xmlns="http://hl7.org/fhir">
<text>
    <status value="generated"/>
    <div xmlns="http://www.w3.org/1999/xhtml">
        <p>
            <b>Generated Narrative</b>
        </p>
        <p>
            <b>identifier</b>: id: 0812763</p>
        <p>
            <b>name</b>: Stabilo Kristin (OFFICIAL)</p>
    </div>
</text>
<identifier>
    <system value="urn:oid:2.999"/>
    <value value="0812763"/>
</identifier>
<name>
    <use value="official"/>
    <family value="Kristin"/>
    <given value="Stabilo"/>
</name>
</Practitioner>
</resource>
</entry>
<entry>
<fullUrl value="urn:uuid:8f304c87-ed20-4e9a-b928-db4116eb6594"/>
<resource>
<Binary xmlns="http://hl7.org/fhir">
<id value="8f304c87-ed20-4e9a-b928-db4116eb6594"/>
<language value="en-US"/>
<contentType value="application/pdf"/>
<data value=""/>
</Binary>
</resource>
</entry>
</Bundle>
