<?xml version="1.0" encoding="UTF-8"?>

<Bundle xmlns="http://hl7.org/fhir">
    <id value="51Doc-Gelbfieber"/>
    <identifier>
        <system value="urn:ietf:rfc:3986"/>
        <value value="urn:uuid:54013a2d-6012-443f-9a90-6331adb23aab"/>
    </identifier>
    <type value="document"/>
    <timestamp value="2024-10-20T12:00:00+02:00"/>
    <entry>
        <fullUrl value="urn:uuid:f9abebfc-c50a-4fc4-8bdd-ba88b86b030a"/>
        <resource>
            <Composition>
                <id value="f9abebfc-c50a-4fc4-8bdd-ba88b86b030a"/>
                <language value="de-CH"/>
                <identifier>
                    <system value="urn:ietf:rfc:3986"/>
                    <value value="urn:uuid:54013a2d-6012-443f-9a90-6331adb23aab"/>
                </identifier>
                <status value="final"/>
                <type>
                    <coding>
                        <system value="http://snomed.info/sct"/>
                        <version value="http://snomed.info/sct/2011000195101"/>
                        <code value="4241000179101"/>
                        <display value="Laborbericht"/>
                    </coding>
                    <coding>
                        <system value="http://loinc.org"/>
                        <code value="11502-2"/>
                        <display value="Laboratory report"/>
                    </coding>
                </type>
                <subject>
                    <reference value="urn:uuid:f09c00e3-ae43-4160-8914-c3855216c2e0"/>
                </subject>
                <date value="2024-10-20T12:00:00+02:00"/>
                <author>
                    <reference value="urn:uuid:2ae38d39-66ed-407a-a82e-eaf98f5fd90f"/>
                </author>
                <title value="Laborbericht vom 20.10.2024"/>
                <section>
                    <title value="Analyseergebnisse der mikrobiologischen Untersuchung"/>
                    <code>
                        <coding>
                            <system value="http://loinc.org"/>
                            <code value="18725-2"/>
                            <display value="Microbiology studies (set)"/>
                        </coding>
                    </code>
                    <entry>
                        <reference value="urn:uuid:cf1c1abf-37ff-4653-89ea-6d7ce0225773"/>
                    </entry>
                </section>
            </Composition>
        </resource>
    </entry>
    <entry>
        <fullUrl value="urn:uuid:f09c00e3-ae43-4160-8914-c3855216c2e0"/>
        <resource>
            <Patient>
                <id value="f09c00e3-ae43-4160-8914-c3855216c2e0"/>
                <identifier>
                    <system value="urn:oid:2.16.756.5.32"/>
                    <value value="7561234567897"/>
                </identifier>
                <name>
                    <family value="Dupont"/>
                    <given value="Antoine"/>
                </name>
                <gender value="female"/>
                <birthDate value="1981-02-07"/>
                <address>
                    <use value="home"/>
                    <line value="rue de la république 10">
                        <extension url="http://hl7.org/fhir/StructureDefinition/iso21090-ADXP-streetName">
                            <valueString value="rue de la république"/>
                        </extension>
                        <extension url="http://hl7.org/fhir/StructureDefinition/iso21090-ADXP-houseNumber">
                            <valueString value="10"/>
                        </extension>
                    </line>
                    <city value="Carouge"/>
                    <state value="GE"/>
                    <postalCode value="1227"/>
                    <country value="CH">
                        <extension url="http://hl7.org/fhir/StructureDefinition/iso21090-SC-coding">
                            <valueCoding>
                                <system value="urn:iso:std:iso:3166"/>
                                <code value="CH"/>
                            </valueCoding>
                        </extension>
                    </country>
                </address>
            </Patient>
        </resource>
    </entry>
    <entry>
        <fullUrl value="urn:uuid:2ae38d39-66ed-407a-a82e-eaf98f5fd90f"/>
        <resource>
            <Organization>
                <id value="2ae38d39-66ed-407a-a82e-eaf98f5fd90f"/>
                <identifier>
                    <system value="urn:oid:2.51.1.3"/>
                    <value value="7601002331470"/>
                </identifier>
                <name value="SanLab"/>
            </Organization>
        </resource>
    </entry>
    <entry>
        <fullUrl value="urn:uuid:cf1c1abf-37ff-4653-89ea-6d7ce0225773"/>
        <resource>
            <Observation>
                <id value="cf1c1abf-37ff-4653-89ea-6d7ce0225773"/>
                <status value="final"/>
                <category>
                    <coding>
                        <system value="http://terminology.hl7.org/CodeSystem/observation-category"/>
                        <code value="laboratory"/>
                        <display value="Laboratory"/>
                    </coding>
                </category>
                <code>
                    <coding>
                        <system value="http://loinc.org"/>
                        <code value="41216-3"/>
                    </coding>
                </code>
                <subject>
                    <reference value="urn:uuid:f09c00e3-ae43-4160-8914-c3855216c2e0"/>
                </subject>
                <effectiveDateTime value="2024-10-19T14:20:00+02:00"/>
                <performer>
                    <reference value="urn:uuid:2ae38d39-66ed-407a-a82e-eaf98f5fd90f"/>
                </performer>
                <dataAbsentReason>
                    <coding>
                        <system value="http://terminology.hl7.org/CodeSystem/data-absent-reason"/>
                        <code value="not-applicable"/>
                    </coding>
                </dataAbsentReason>
                <interpretation>
                    <coding>
                        <system value="http://terminology.hl7.org/CodeSystem/v3-ObservationInterpretation"/>
                        <code value="POS"/>
                        <display value="Positive"/>
                    </coding>
                </interpretation>
                <specimen>
                    <reference value="urn:uuid:2e90db23-bbd5-4339-88ed-2e11a4975b79"/>
                </specimen>
            </Observation>
        </resource>
    </entry>
    <entry>
        <fullUrl value="urn:uuid:fc25de07-343a-4157-9bdb-67c2c47482a9"/>
        <resource>
            <Practitioner>
                <id value="fc25de07-343a-4157-9bdb-67c2c47482a9"/>
                <identifier>
                    <system value="urn:oid:2.51.1.3"/>
                    <value value="7601000000514"/>
                </identifier>
                <name>
                    <family value="Hauser"/>
                    <given value="Peter"/>
                </name>
                <telecom>
                    <system value="phone"/>
                    <value value="+41 79 222 33 44"/>
                </telecom>
                <telecom>
                    <system value="email"/>
                    <value value="peter.hauser@hauserpraxis.ch"/>
                </telecom>
            </Practitioner>
        </resource>
    </entry>
    <entry>
        <fullUrl value="urn:uuid:0a772a89-c3a1-45ed-8612-eec8eff536df"/>
        <resource>
            <Organization>
                <id value="0a772a89-c3a1-45ed-8612-eec8eff536df"/>
                <identifier>
                    <system value="urn:oid:2.16.756.5.45"/>
                    <value value="A74966168"/>
                </identifier>
                <name value="Praxis Dr. Hauser"/>
                <address>
                    <line value="Hauptstrasse 10">
                        <extension url="http://hl7.org/fhir/StructureDefinition/iso21090-ADXP-streetName">
                            <valueString value="Hauptstrasse"/>
                        </extension>
                        <extension url="http://hl7.org/fhir/StructureDefinition/iso21090-ADXP-houseNumber">
                            <valueString value="10"/>
                        </extension>
                    </line>
                    <city value="Solothurn"/>
                    <postalCode value="4500"/>
                </address>
            </Organization>
        </resource>
    </entry>
    <entry>
        <fullUrl value="urn:uuid:b5e3a6bd-baf6-4d65-9cde-cf4f7639dc56"/>
        <resource>
            <PractitionerRole>
                <id value="b5e3a6bd-baf6-4d65-9cde-cf4f7639dc56"/>
                <practitioner>
                    <reference value="urn:uuid:fc25de07-343a-4157-9bdb-67c2c47482a9"/>
                </practitioner>
                <organization>
                    <reference value="urn:uuid:0a772a89-c3a1-45ed-8612-eec8eff536df"/>
                </organization>
            </PractitionerRole>
        </resource>
    </entry>
    <entry>
        <fullUrl value="urn:uuid:2e90db23-bbd5-4339-88ed-2e11a4975b79"/>
        <resource>
            <Specimen>
                <id value="2e90db23-bbd5-4339-88ed-2e11a4975b79"/>
                <type>
                    <text value="Material declared by Observation.code or non-mandatory"/>
                </type>
                <subject>
                    <reference value="urn:uuid:f09c00e3-ae43-4160-8914-c3855216c2e0"/>
                </subject>
                <collection>
                    <collectedDateTime value="2024-10-15T14:20:00+02:00"/>
                </collection>
            </Specimen>
        </resource>
    </entry>
    <entry>
        <fullUrl value="urn:uuid:2ef84027-ae9d-4406-b8e1-be895e2a570c"/>
        <resource>
            <ServiceRequest>
                <id value="2ef84027-ae9d-4406-b8e1-be895e2a570c"/>
                <identifier>
                    <value value="26500923675"/>
                </identifier>
                <status value="completed"/>
                <intent value="order"/>
                <code>
                    <coding>
                        <system value="http://loinc.org"/>
                        <code value="41216-3"/>
                    </coding>
                </code>
                <subject>
                    <reference value="urn:uuid:f09c00e3-ae43-4160-8914-c3855216c2e0"/>
                </subject>
                <requester>
                    <reference value="urn:uuid:b5e3a6bd-baf6-4d65-9cde-cf4f7639dc56"/>
                </requester>
                <specimen>
                    <reference value="urn:uuid:2e90db23-bbd5-4339-88ed-2e11a4975b79"/>
                </specimen>
            </ServiceRequest>
        </resource>
    </entry>
    <entry>
        <fullUrl value="urn:uuid:b401e43b-54ad-42f3-826f-30d333363b59"/>
        <resource>
            <DiagnosticReport>
                <id value="b401e43b-54ad-42f3-826f-30d333363b59"/>
                <extension url="http://hl7.org/fhir/5.0/StructureDefinition/extension-DiagnosticReport.composition">
                    <valueReference>
                        <reference value="urn:uuid:f9abebfc-c50a-4fc4-8bdd-ba88b86b030a"/>
                    </valueReference>
                </extension>
                <identifier>
                    <system value="urn:ietf:rfc:3986"/>
                    <value value="urn:uuid:54013a2d-6012-443f-9a90-6331adb23aab"/>
                </identifier>
                <basedOn>
                    <reference value="urn:uuid:2ef84027-ae9d-4406-b8e1-be895e2a570c"/>
                </basedOn>
                <status value="final"/>
                <code>
                    <coding>
                        <system value="http://loinc.org"/>
                        <code value="11502-2"/>
                        <display value="Laboratory report"/>
                    </coding>
                </code>
                <subject>
                    <reference value="urn:uuid:f09c00e3-ae43-4160-8914-c3855216c2e0"/>
                </subject>
                <performer>
                    <reference value="urn:uuid:2ae38d39-66ed-407a-a82e-eaf98f5fd90f"/>
                </performer>
                <specimen>
                    <reference value="urn:uuid:2e90db23-bbd5-4339-88ed-2e11a4975b79"/>
                </specimen>
                <result>
                    <reference value="urn:uuid:cf1c1abf-37ff-4653-89ea-6d7ce0225773"/>
                </result>
            </DiagnosticReport>
        </resource>
    </entry>
</Bundle>
